loggingTime(txt),locationTimestamp_since1970(s),locationLatitude(WGS84),locationLongitude(WGS84),locationAltitude(m),locationSpeed(m/s),locationSpeedAccuracy(m/s),locationCourse(°),locationCourseAccuracy(°),locationVerticalAccuracy(m),locationHorizontalAccuracy(m),locationFloor(Z),accelerometerTimestamp_sinceReboot(s),accelerometerAccelerationX(G),accelerometerAccelerationY(G),accelerometerAccelerationZ(G),motionTimestamp_sinceReboot(s),motionYaw(rad),motionRoll(rad),motionPitch(rad),motionRotationRateX(rad/s),motionRotationRateY(rad/s),motionRotationRateZ(rad/s),motionUserAccelerationX(G),motionUserAccelerationY(G),motionUserAccelerationZ(G),motionAttitudeReferenceFrame(txt),motionQuaternionX(R),motionQuaternionY(R),motionQuaternionZ(R),motionQuaternionW(R),motionGravityX(G),motionGravityY(G),motionGravityZ(G),motionMagneticFieldX(µT),motionMagneticFieldY(µT),motionMagneticFieldZ(µT),motionHeading(°),motionMagneticFieldCalibrationAccuracy(Z),activityTimestamp_sinceReboot(s),activity(txt),activityActivityConfidence(Z),activityActivityStartDate(txt),pedometerStartDate(txt),pedometerNumberofSteps(N),pedometerAverageActivePace(s/m),pedometerCurrentPace(s/m),pedometerCurrentCadence(steps/s),pedometerDistance(m),pedometerFloorAscended(N),pedometerFloorDescended(N),pedometerEndDate(txt),altimeterTimestamp_sinceReboot(s),altimeterReset(bool),altimeterRelativeAltitude(m),altimeterPressure(kPa),batteryState(N),batteryLevel(R),heartRateBPMTimestamp(txt),heartRateBPM(N),heartRateBPS(R),heartRateVariabilityTimestamp(txt),heartRateVariability(ms)
2026-03-30T14:42:57.370-05:00,1774899777,30.28881182,-97.7375697,174.6237,0.1580935,0.07850529,244.2502968,180,3,8.27965148,-9999,135507.9995,0.819244385,0.256317139,-0.499954224,135507.9882,-3.091817151,1.020828322,-0.259471377,0.01341664,-0.005336884,0.003882866,-0.004377246,0.002143025,0.007056296,XArbitraryZVertical,0.481473915,0.124902832,-0.86651441,-0.04165278,0.824003041,0.256569654,-0.505164325,0,0,0,-1,-1,135505.5707,unknown,2,2026-03-30T14:42:54.938-05:00,2026-03-30T10:54:16.334-05:00,3835,1.354185,0,0,2585.694,4,4,2026-03-30T14:42:54.938-05:00,796592575,0,0.9300003,99.59001,1,0.9,2026-03-30T14:37:50.703-05:00,72,1.2,2026-03-30T12:48:13.834-05:00,0.123680593
2026-03-30T14:42:57.405-05:00,1774899777,30.28881182,-97.7375697,174.6237,0.1580935,0.07850529,244.2502968,180,3,8.27965148,-9999,135508.0334,0.826095581,0.254989624,-0.500640869,135508.0183,-3.091926216,1.020695583,-0.259398022,-0.000999984,-0.001663386,-0.000610977,-0.003639519,-0.001478642,0.004947722,XArbitraryZVertical,0.481426316,0.124847675,-0.866547803,-0.041673879,0.823952079,0.256498754,-0.505283535,0,0,0,-1,-1,135505.5707,unknown,2,2026-03-30T14:42:54.938-05:00,2026-03-30T10:54:16.334-05:00,3835,1.354185,0,0,2585.694,4,4,2026-03-30T14:42:54.938-05:00,796592575,0,0.9300003,99.59001,1,0.9,2026-03-30T14:37:50.703-05:00,72,1.2,2026-03-30T12:48:13.834-05:00,0.123680593
2026-03-30T14:42:57.436-05:00,1774899777,30.28881182,-97.7375697,174.6237,0.1580935,0.07850529,244.2502968,180,3,8.27965148,-9999,135508.0673,0.823013306,0.258804321,-0.499969482,135508.0485,-3.091822942,1.020700351,-0.259504827,-0.004203056,-0.00204436,2.42E-05,0.002515495,-0.00078845,0.005402505,XArbitraryZVertical,0.481417403,0.124918541,-0.866543468,-0.041655431,0.823931158,0.256601989,-0.505265296,0,0,0,-1,-1,135505.5707,unknown,2,2026-03-30T14:42:54.938-05:00,2026-03-30T10:54:16.334-05:00,3835,1.354185,0,0,2585.694,4,4,2026-03-30T14:42:54.938-05:00,796592575,0,0.9300003,99.59001,1,0.9,2026-03-30T14:37:50.703-05:00,72,1.2,2026-03-30T12:48:13.834-05:00,0.123680593
2026-03-30T14:42:57.470-05:00,1774899777,30.28881182,-97.7375697,174.6237,0.1580935,0.07850529,244.2502968,180,3,8.27965148,-9999,135508.1012,0.82069397,0.253158569,-0.502578735,135508.0786,-3.091798454,1.020787964,-0.259556162,-0.000541853,0.000665422,0.002366652,-0.000966132,0.000733554,0.003919661,XArbitraryZVertical,0.481451686,0.124944776,-0.866520161,-0.041662821,0.823964059,0.25665161,-0.505186141,0,0,0,-1,-1,135505.5707,unknown,2,2026-03-30T14:42:54.938-05:00,2026-03-30T10:54:16.334-05:00,3835,1.354185,0,0,2585.694,4,4,2026-03-30T14:42:54.938-05:00,796592575,0,0.9300003,99.59001,1,0.9,2026-03-30T14:37:50.703-05:00,72,1.2,2026-03-30T12:48:13.834-05:00,0.123680593
2026-03-30T14:42:57.506-05:00,1774899777,30.28881182,-97.7375697,174.6237,0.1580935,0.07850529,244.2502968,180,3,8.27965148,-9999,135508.1352,0.820770264,0.254302979,-0.503372192,135508.1088,-3.091763777,1.02084504,-0.259551623,-0.000254521,0.001272035,0.00075153,-0.002643883,-0.00385493,0.002652526,XArbitraryZVertical,0.481474446,0.124949977,-0.866507344,-0.041650263,0.823993862,0.256647229,-0.505139709,0,0,0,-1,-1,135505.5707,unknown,2,2026-03-30T14:42:54.938-05:00,2026-03-30T10:54:16.334-05:00,3835,1.354185,0,0,2585.694,4,4,2026-03-30T14:42:54.938-05:00,796592575,0,0.9300003,99.59001,1,0.9,2026-03-30T14:37:50.703-05:00,72,1.2,2026-03-30T12:48:13.834-05:00,0.123680593
2026-03-30T14:42:57.541-05:00,1774899777,30.28881182,-97.7375697,174.6237,0.1580935,0.07850529,244.2502968,180,3,8.27965148,-9999,135508.1691,0.820358276,0.252655029,-0.501480103,135508.1389,-3.091698433,1.021022747,-0.259575021,0.003535979,0.000592451,0.000859836,-0.002850592,-0.002000719,0.002213001,XArbitraryZVertical,0.48154634,0.124972105,-0.866464851,-0.041638735,0.824078619,0.256669819,-0.50499022,0,0,0,-1,-1,135505.5707,unknown,2,2026-03-30T14:42:54.938-05:00,2026-03-30T10:54:16.334-05:00,3835,1.354185,0,0,2585.694,4,4,2026-03-30T14:42:54.938-05:00,796592575,0,0.9300003,99.59001,1,0.9,2026-03-30T14:37:50.703-05:00,72,1.2,2026-03-30T12:48:13.834-05:00,0.123680593
2026-03-30T14:42:57.571-05:00,1774899777,30.28881182,-97.7375697,174.6237,0.1580935,0.07850529,244.2502968,180,3,8.27965148,-9999,135508.203,0.819274902,0.256881714,-0.500137329,135508.1691,-3.091685863,1.021148982,-0.259612561,-0.007220795,0.002401004,-0.003231312,-0.004325151,-0.002662569,0.002836347,XArbitraryZVertical,0.481598634,0.124988705,-0.866432906,-0.041650308,0.824134171,0.256706119,-0.504881144,0,0,0,-1,-1,135505.5707,unknown,2,2026-03-30T14:42:54.938-05:00,2026-03-30T10:54:16.334-05:00,3835,1.354185,0,0,2585.694,4,4,2026-03-30T14:42:54.938-05:00,796592575,0,0.9300003,99.59001,1,0.9,2026-03-30T14:37:50.703-05:00,72,1.2,2026-03-30T12:48:13.834-05:00,0.123680593
2026-03-30T14:42:57.607-05:00,1774899777,30.28881182,-97.7375697,174.6237,0.1580935,0.07850529,244.2502968,180,3,8.27965148,-9999,135508.2369,0.822113037,0.251312256,-0.500045776,135508.2294,-3.091612394,1.02117215,-0.259684279,-0.00745522,-0.002661752,-0.002421001,-0.000964284,-0.00146547,0.005127013,XArbitraryZVertical,0.481601065,0.125036874,-0.866425099,-0.041637426,0.824130058,0.256775439,-0.504852414,0,0,0,-1,-1,135508.144,unknown,2,2026-03-30T14:42:57.511-05:00,2026-03-30T10:54:16.334-05:00,3835,1.354185,0,0,2585.694,4,4,2026-03-30T14:42:57.511-05:00,796592577.6,0,0.9100037,99.59038,1,0.9,2026-03-30T14:37:50.703-05:00,72,1.2,2026-03-30T12:48:13.834-05:00,0.123680593
2026-03-30T14:42:57.641-05:00,1774899777,30.28881182,-97.7375697,174.6237,0.1580935,0.07850529,244.2502968,180,3,8.27965148,-9999,135508.2709,0.82119751,0.258728027,-0.49887085,135508.2596,-3.091469265,1.021171499,-0.259763466,-3.38E-05,-0.00053844,-0.000399992,-0.002991259,0.001158804,0.003896236,XArbitraryZVertical,0.481588472,0.125105532,-0.86642423,-0.041594674,0.824112415,0.256851971,-0.504842281,0,0,0,-1,-1,135508.144,unknown,2,2026-03-30T14:42:57.511-05:00,2026-03-30T10:54:16.334-05:00,3835,1.354185,0,0,2585.694,4,4,2026-03-30T14:42:57.511-05:00,796592577.6,0,0.9100037,99.59038,1,0.9,2026-03-30T14:37:50.703-05:00,72,1.2,2026-03-30T12:48:13.834-05:00,0.123680593
2026-03-30T14:42:57.677-05:00,1774899777,30.28881182,-97.7375697,174.6237,0.1580935,0.07850529,244.2502968,180,3,8.27965148,-9999,135508.3048,0.822418213,0.259552002,-0.499954224,135508.2897,-3.091482666,1.021173806,-0.259753698,2.27E-05,-0.000461712,-0.001301886,-0.00094986,0.001091957,0.007191479,XArbitraryZVertical,0.48159073,0.125098042,-0.866423865,-0.041598249,0.824115694,0.256842524,-0.504841685,0,0,0,-1,-1,135508.144,unknown,2,2026-03-30T14:42:57.511-05:00,2026-03-30T10:54:16.334-05:00,3835,1.354185,0,0,2585.694,4,4,2026-03-30T14:42:57.511-05:00,796592577.6,0,0.9100037,99.59038,1,0.9,2026-03-30T14:37:50.703-05:00,72,1.2,2026-03-30T12:48:13.834-05:00,0.123680593
2026-03-30T14:42:57.707-05:00,1774899777,30.28881182,-97.7375697,174.6237,0.1580935,0.07850529,244.2502968,180,3,8.27965148,-9999,135508.3387,0.821365356,0.25718689,-0.502532959,135508.3199,-3.091541062,1.021201963,-0.25969812,0.004727633,0.001479619,0.001136086,-0.00166297,0.003709137,0.003040612,XArbitraryZVertical,0.48160894,0.125059406,-0.866418668,-0.041611768,0.824142039,0.25678882,-0.50482595,0,0,0,-1,-1,135508.144,unknown,2,2026-03-30T14:42:57.511-05:00,2026-03-30T10:54:16.334-05:00,3835,1.354185,0,0,2585.694,4,4,2026-03-30T14:42:57.511-05:00,796592577.6,0,0.9100037,99.59038,1,0.9,2026-03-30T14:37:50.703-05:00,72,1.2,2026-03-30T12:48:13.834-05:00,0.123680593
2026-03-30T14:42:57.742-05:00,1774899777,30.28881182,-97.7375697,174.6237,0.1580935,0.07850529,244.2502968,180,3,8.27965148,-9999,135508.3726,0.82144165,0.257156372,-0.501434326,135508.35,-3.091609414,1.021245822,-0.259670278,-0.000159956,0.001307244,-0.000359359,-0.001828492,-0.001924962,0.0023368,XArbitraryZVertical,0.4816334,0.125030017,-0.866408065,-0.041637341,0.824170291,0.256761909,-0.504793525,0,0,0,-1,-1,135508.144,unknown,2,2026-03-30T14:42:57.511-05:00,2026-03-30T10:54:16.334-05:00,3835,1.354185,0,0,2585.694,4,4,2026-03-30T14:42:57.511-05:00,796592577.6,0,0.9100037,99.59038,1,0.9,2026-03-30T14:37:50.703-05:00,72,1.2,2026-03-30T12:48:13.834-05:00,0.123680593
2026-03-30T14:42:57.777-05:00,1774899777,30.28881182,-97.7375697,174.6237,0.1580935,0.07850529,244.2502968,180,3,8.27965148,-9999,135508.4066,0.823348999,0.250350952,-0.49546814,135508.3802,-3.091788823,1.021322722,-0.259538883,0.008209294,0.001220691,0.000219878,-0.003620267,-0.000287294,0.003694832,XArbitraryZVertical,0.481683455,0.124928488,-0.866392639,-0.041687814,0.824238002,0.256634891,-0.504747868,0,0,0,-1,-1,135508.144,unknown,2,2026-03-30T14:42:57.511-05:00,2026-03-30T10:54:16.334-05:00,3835,1.354185,0,0,2585.694,4,4,2026-03-30T14:42:57.511-05:00,796592577.6,0,0.9100037,99.59038,1,0.9,2026-03-30T14:37:50.703-05:00,72,1.2,2026-03-30T12:48:13.834-05:00,0.123680593
2026-03-30T14:42:57.812-05:00,1774899777,30.28881182,-97.7375697,174.6237,0.1580935,0.07850529,244.2502968,180,3,8.27965148,-9999,135508.4405,0.820831299,0.25328064,-0.503814697,135508.4103,-3.091742845,1.021309549,-0.259562601,-0.005616263,-0.002766356,-0.000362407,-0.000571966,-0.006184876,0.010202765,XArbitraryZVertical,0.481673889,0.124950076,-0.866395482,-0.04167287,0.824226081,0.256657839,-0.504755497,0,0,0,-1,-1,135508.144,unknown,2,2026-03-30T14:42:57.511-05:00,2026-03-30T10:54:16.334-05:00,3835,1.354185,0,0,2585.694,4,4,2026-03-30T14:42:57.511-05:00,796592577.6,0,0.9100037,99.59038,1,0.9,2026-03-30T14:37:50.703-05:00,72,1.2,2026-03-30T12:48:13.834-05:00,0.123680593
2026-03-30T14:42:57.842-05:00,1774899777,30.28881182,-97.7375697,174.6237,0.1580935,0.07850529,244.2502968,180,3,8.27965148,-9999,135508.4744,0.820922852,0.259353638,-0.509353638,135508.4405,-3.091634405,1.021266779,-0.259632917,-0.008960483,-0.002491128,-0.003825053,-0.002427101,-0.002743304,0.001821041,XArbitraryZVertical,0.481645597,0.125007432,-0.866404524,-0.041640348,0.824189126,0.256725788,-0.504781306,0,0,0,-1,-1,135508.144,unknown,2,2026-03-30T14:42:57.511-05:00,2026-03-30T10:54:16.334-05:00,3835,1.354185,0,0,2585.694,4,4,2026-03-30T14:42:57.511-05:00,796592577.6,0,0.9100037,99.59038,1,0.9,2026-03-30T14:37:50.703-05:00,72,1.2,2026-03-30T12:48:13.834-05:00,0.123680593
2026-03-30T14:42:57.878-05:00,1774899777,30.28881182,-97.7375697,174.6237,0.1580935,0.07850529,244.2502968,180,3,8.27965148,-9999,135508.5083,0.8228302,0.254684448,-0.500961304,135508.5008,-3.091575507,1.021324321,-0.259707231,0.001410932,0.001001049,0.000232475,-4.42E-05,-0.002159029,0.000893891,XArbitraryZVertical,0.481663707,0.125052496,-0.866388054,-0.041636555,0.824201882,0.256797612,-0.504723907,0,0,0,-1,-1,135508.144,unknown,2,2026-03-30T14:42:57.511-05:00,2026-03-30T10:54:16.334-05:00,3835,1.354185,0,0,2585.694,4,4,2026-03-30T14:42:57.511-05:00,796592577.6,0,0.9100037,99.59038,1,0.9,2026-03-30T14:37:50.703-05:00,72,1.2,2026-03-30T12:48:13.834-05:00,0.123680593
2026-03-30T14:42:57.913-05:00,1774899777,30.28881182,-97.7375697,174.6237,0.1580935,0.07850529,244.2502968,180,3,8.27965148,-9999,135508.5423,0.824295044,0.250900269,-0.497238159,135508.531,-3.091554102,1.021350025,-0.259725152,-0.006277881,-0.000795812,-0.001724213,-0.002937198,-0.002161115,0.00625664,XArbitraryZVertical,0.48167275,0.125064852,-0.86638137,-0.041633263,0.824210882,0.256814927,-0.504700303,0,0,0,-1,-1,135508.144,unknown,2,2026-03-30T14:42:57.511-05:00,2026-03-30T10:54:16.334-05:00,3835,1.354185,0,0,2585.694,4,4,2026-03-30T14:42:57.511-05:00,796592577.6,0,0.9100037,99.59038,1,0.9,2026-03-30T14:37:50.703-05:00,72,1.2,2026-03-30T12:48:13.834-05:00,0.123680593
2026-03-30T14:42:57.948-05:00,1774899777,30.28881182,-97.7375697,174.6237,0.1580935,0.07850529,244.2502968,180,3,8.27965148,-9999,135508.5762,0.82144165,0.25869751,-0.496887207,135508.5611,-3.091331288,1.021334753,-0.259904587,-0.007278808,-0.0022216,0.00060427,-0.001364291,8.94E-08,0.009251177,XArbitraryZVertical,0.481644562,0.125196273,-0.866380676,-0.041579501,0.824163914,0.256988347,-0.504688799,0,0,0,-1,-1,135508.144,unknown,2,2026-03-30T14:42:57.511-05:00,2026-03-30T10:54:16.334-05:00,3835,1.354185,0,0,2585.694,4,4,2026-03-30T14:42:57.511-05:00,796592577.6,0,0.9100037,99.59038,1,0.9,2026-03-30T14:37:50.703-05:00,72,1.2,2026-03-30T12:48:13.834-05:00,0.123680593
2026-03-30T14:42:57.979-05:00,1774899777,30.28881182,-97.7375697,174.6237,0.1580935,0.07850529,244.2502968,180,3,8.27965148,-9999,135508.6101,0.821929932,0.257247925,-0.500198364,135508.5913,-3.091231241,1.021285983,-0.25994413,-0.002944646,-0.003964359,0.000667019,-7.98E-05,0.000145018,0.006112218,XArbitraryZVertical,0.481615467,0.125238443,-0.866392611,-0.041542723,0.824130654,0.257026553,-0.504723728,0,0,0,-1,-1,135508.144,unknown,2,2026-03-30T14:42:57.511-05:00,2026-03-30T10:54:16.334-05:00,3835,1.354185,0,0,2585.694,4,4,2026-03-30T14:42:57.511-05:00,796592577.6,0,0.9100037,99.59038,1,0.9,2026-03-30T14:37:50.703-05:00,72,1.2,2026-03-30T12:48:13.834-05:00,0.123680593
2026-03-30T14:42:58.013-05:00,1774899777,30.28881182,-97.7375697,174.6237,0.1580935,0.07850529,244.2502968,180,3,8.27965148,-9999,135508.644,0.822723389,0.258850098,-0.502410889,135508.6214,-3.091175176,1.021274222,-0.259954959,-0.000766824,-0.00048812,0.0008739,-0.003230095,-1.80E-05,0.003099203,XArbitraryZVertical,0.481606401,0.125256862,-0.866396063,-0.041520338,0.824122369,0.257037014,-0.504732013,0,0,0,-1,-1,135508.144,unknown,2,2026-03-30T14:42:57.511-05:00,2026-03-30T10:54:16.334-05:00,3835,1.354185,0,0,2585.694,4,4,2026-03-30T14:42:57.511-05:00,796592577.6,0,0.9100037,99.59038,1,0.9,2026-03-30T14:37:50.703-05:00,72,1.2,2026-03-30T12:48:13.834-05:00,0.123680593
2026-03-30T14:42:58.049-05:00,1774899777,30.28881182,-97.7375697,174.6237,0.1580935,0.07850529,244.2502968,180,3,8.27965148,-9999,135508.678,0.821578979,0.253860474,-0.502487183,135508.6516,-3.091161811,1.021316335,-0.259912578,0.00162596,0.001208734,0.001389336,-0.001551628,0.00188446,0.002398789,XArbitraryZVertical,0.481625622,0.125240916,-0.866388279,-0.04150687,0.824152887,0.256996065,-0.504702926,0,0,0,-1,-1,135508.144,unknown,2,2026-03-30T14:42:57.511-05:00,2026-03-30T10:54:16.334-05:00,3835,1.354185,0,0,2585.694,4,4,2026-03-30T14:42:57.511-05:00,796592577.6,0,0.9100037,99.59038,1,0.9,2026-03-30T14:37:50.703-05:00,72,1.2,2026-03-30T12:48:13.834-05:00,0.123680593
2026-03-30T14:42:58.084-05:00,1774899778,30.28880794,-97.73757217,174.5324,0.02726122,0.07759622,244.2502968,180,3,8.416329833,-9999,135508.7119,0.819763184,0.257217407,-0.501281738,135508.6817,-3.091120007,1.021438985,-0.259941999,-0.004831407,0.001187162,-0.000443718,-0.002400517,-0.002492696,0.002843022,XArbitraryZVertical,0.481674882,0.125261136,-0.866358124,-0.041503611,0.824208319,0.257024497,-0.504597902,0,0,0,-1,-1,135508.144,unknown,2,2026-03-30T14:42:57.511-05:00,2026-03-30T10:54:16.334-05:00,3835,1.354185,0,0,2585.694,4,4,2026-03-30T14:42:57.511-05:00,796592577.6,0,0.9100037,99.59038,1,0.9,2026-03-30T14:37:50.703-05:00,72,1.2,2026-03-30T12:48:13.834-05:00,0.123680593
2026-03-30T14:42:58.114-05:00,1774899778,30.28880794,-97.73757217,174.5324,0.02726122,0.07759622,244.2502968,180,3,8.416329833,-9999,135508.7458,0.823501587,0.253677368,-0.502700806,135508.7119,-3.0911268,1.021455694,-0.259948146,0.00469523,0.000702944,0.000865044,-0.004833698,0.000797242,0.003057361,XArbitraryZVertical,0.481682289,0.125261807,-0.866353625,-0.041509103,0.824215412,0.257030427,-0.504583299,0,0,0,-1,-1,135508.144,unknown,2,2026-03-30T14:42:57.511-05:00,2026-03-30T10:54:16.334-05:00,3835,1.354185,0,0,2585.694,4,4,2026-03-30T14:42:57.511-05:00,796592577.6,0,0.9100037,99.59038,1,0.9,2026-03-30T14:37:50.703-05:00,72,1.2,2026-03-30T12:48:13.834-05:00,0.123680593
2026-03-30T14:42:58.159-05:00,1774899778,30.28880794,-97.73757217,174.5324,0.02726122,0.07759622,244.2502968,180,3,8.416329833,-9999,135508.7797,0.825180054,0.252471924,-0.501327515,135508.7722,-3.091250503,1.021456264,-0.259949251,-0.005057443,0.00183445,-0.002379354,-0.001263201,-0.002133518,0.002202213,XArbitraryZVertical,0.481690234,0.125232479,-0.866350869,-0.041562992,0.824215412,0.2570315,-0.504582703,0,0,0,-1,-1,135508.144,unknown,2,2026-03-30T14:42:57.511-05:00,2026-03-30T10:54:16.334-05:00,3835,1.354185,0,0,2585.694,4,4,2026-03-30T14:42:57.511-05:00,796592577.6,0,0.9100037,99.59038,1,0.9,2026-03-30T14:37:50.703-05:00,72,1.2,2026-03-30T12:48:13.834-05:00,0.123680593
2026-03-30T14:42:58.184-05:00,1774899778,30.28880794,-97.73757217,174.5324,0.02726122,0.07759622,244.2502968,180,3,8.416329833,-9999,135508.8137,0.822952271,0.256225586,-0.49822998,135508.8024,-3.091125964,1.021501503,-0.260084916,-0.00370813,-0.000346397,0.001343965,0.001001954,-0.002569765,0.001353264,XArbitraryZVertical,0.481696242,0.125320082,-0.86633578,-0.041544929,0.824208558,0.257162601,-0.504527211,0,0,0,-1,-1,135508.144,unknown,2,2026-03-30T14:42:57.511-05:00,2026-03-30T10:54:16.334-05:00,3835,1.354185,0,0,2585.694,4,4,2026-03-30T14:42:57.511-05:00,796592577.6,0,0.9100037,99.59038,1,0.9,2026-03-30T14:37:50.703-05:00,72,1.2,2026-03-30T12:48:13.834-05:00,0.123680593
2026-03-30T14:42:58.219-05:00,1774899778,30.28880794,-97.73757217,174.5324,0.02726122,0.07759622,244.2502968,180,3,8.416329833,-9999,135508.8476,0.820861816,0.256103516,-0.497116089,135508.8325,-3.091019069,1.021522817,-0.260111607,-0.005680667,-0.001809398,-0.001837232,-0.003855228,-0.002427727,0.006428599,XArbitraryZVertical,0.481697634,0.125356903,-0.866331538,-0.041506462,0.824213445,0.25718841,-0.504506052,0,0,0,-1,-1,135508.144,unknown,2,2026-03-30T14:42:57.511-05:00,2026-03-30T10:54:16.334-05:00,3835,1.354185,0,0,2585.694,4,4,2026-03-30T14:42:57.511-05:00,796592577.6,0,0.9100037,99.59038,1,0.9,2026-03-30T14:37:50.703-05:00,72,1.2,2026-03-30T12:48:13.834-05:00,0.123680593
2026-03-30T14:42:58.250-05:00,1774899778,30.28880794,-97.73757217,174.5324,0.02726122,0.07759622,244.2502968,180,3,8.416329833,-9999,135508.8815,0.820724487,0.26008606,-0.500579834,135508.8627,-3.090817633,1.021538285,-0.260262172,-0.00770518,-0.003412326,-0.00108051,-0.004180908,-0.001596689,0.007829964,XArbitraryZVertical,0.481685309,0.125470079,-0.866324258,-0.041456898,0.824188113,0.257333905,-0.504473031,0,0,0,-1,-1,135508.144,unknown,2,2026-03-30T14:42:57.511-05:00,2026-03-30T10:54:16.334-05:00,3835,1.354185,0,0,2585.694,4,4,2026-03-30T14:42:57.511-05:00,796592577.6,0,0.9100037,99.59038,1,0.9,2026-03-30T14:37:50.703-05:00,72,1.2,2026-03-30T12:48:13.834-05:00,0.123680593
2026-03-30T14:42:58.285-05:00,1774899778,30.28880794,-97.73757217,174.5324,0.02726122,0.07759622,244.2502968,180,3,8.416329833,-9999,135508.9154,0.821990967,0.256652832,-0.504425049,135508.8928,-3.09072993,1.021513425,-0.260305493,-0.00345766,-0.00181296,-0.000721621,-0.00446403,0.002191424,0.004014611,XArbitraryZVertical,0.481667168,0.125510408,-0.866329975,-0.041427888,0.824166179,0.257375777,-0.504487753,0,0,0,-1,-1,135508.144,unknown,2,2026-03-30T14:42:57.511-05:00,2026-03-30T10:54:16.334-05:00,3835,1.354185,0,0,2585.694,4,4,2026-03-30T14:42:57.511-05:00,796592577.6,0,0.9100037,99.59038,1,0.9,2026-03-30T14:37:50.703-05:00,72,1.2,2026-03-30T12:48:13.834-05:00,0.123680593
2026-03-30T14:42:58.320-05:00,1774899778,30.28880794,-97.73757217,174.5324,0.02726122,0.07759622,244.2502968,180,3,8.416329833,-9999,135508.9494,0.82258606,0.25958252,-0.503326416,135508.923,-3.090678769,1.021570975,-0.260376881,-0.004098172,0.00122139,-0.004254486,-0.00209707,-0.00088352,-8.59E-05,XArbitraryZVertical,0.48168583,0.125552344,-0.866313601,-0.041426733,0.82417953,0.257444739,-0.504430711,0,0,0,-1,-1,135508.144,unknown,2,2026-03-30T14:42:57.511-05:00,2026-03-30T10:54:16.334-05:00,3835,1.354185,0,0,2585.694,4,4,2026-03-30T14:42:57.511-05:00,796592577.6,0,0.9100037,99.59038,1,0.9,2026-03-30T14:37:50.703-05:00,72,1.2,2026-03-30T12:48:13.834-05:00,0.123680593
2026-03-30T14:42:58.355-05:00,1774899778,30.28880794,-97.73757217,174.5324,0.02726122,0.07759622,244.2502968,180,3,8.416329833,-9999,135508.9833,0.82081604,0.251937866,-0.498626709,135508.9531,-3.090684527,1.021622778,-0.26041999,-0.000402415,-0.001046655,-2.08E-05,-0.00072515,0.002538532,0.001193106,XArbitraryZVertical,0.481706806,0.12556849,-0.866298744,-0.041443003,0.82419616,0.257486403,-0.504382193,0,0,0,-1,-1,135508.144,unknown,2,2026-03-30T14:42:57.511-05:00,2026-03-30T10:54:16.334-05:00,3835,1.354185,0,0,2585.694,4,4,2026-03-30T14:42:57.511-05:00,796592577.6,0,0.9100037,99.59038,1,0.9,2026-03-30T14:37:50.703-05:00,72,1.2,2026-03-30T12:48:13.834-05:00,0.123680593
2026-03-30T14:42:56.350-05:00,1774899776,30.28881481,-97.73756321,174.4581,0.03141521,0.08601888,244.2502968,180,3,7.763463863,-9999,135506.9817,0.822296143,0.255615234,-0.500656128,135506.9629,-3.09553965,1.021569192,-0.255784816,0.001693937,-0.00543361,-3.93E-05,-0.002943218,0.000748813,0.004357278,XArbitraryZVertical,0.482178938,0.122398844,-0.866442731,-0.042413291,0.825178206,0.25300476,-0.505043983,0,0,0,-1,-1,135505.5707,unknown,2,2026-03-30T14:42:54.938-05:00,2026-03-30T10:54:16.334-05:00,3835,1.354185,0,0,2585.694,4,4,2026-03-30T14:42:54.938-05:00,796592575,0,0.9300003,99.59001,1,0.9,2026-03-30T14:37:50.703-05:00,72,1.2,2026-03-30T12:48:13.834-05:00,0.123680593
2026-03-30T14:42:56.385-05:00,1774899776,30.28881481,-97.73756321,174.4581,0.03141521,0.08601888,244.2502968,180,3,7.763463863,-9999,135507.0157,0.818206787,0.256011963,-0.496994019,135506.993,-3.095658886,1.021399289,-0.255637099,0.009764468,-0.007975427,0.003053232,-0.00334698,0.00310427,0.003906608,XArbitraryZVertical,0.482118693,0.122309918,-0.866488572,-0.042418561,0.825124264,0.252861857,-0.505203724,0,0,0,-1,-1,135505.5707,unknown,2,2026-03-30T14:42:54.938-05:00,2026-03-30T10:54:16.334-05:00,3835,1.354185,0,0,2585.694,4,4,2026-03-30T14:42:54.938-05:00,796592575,0,0.9300003,99.59001,1,0.9,2026-03-30T14:37:50.703-05:00,72,1.2,2026-03-30T12:48:13.834-05:00,0.123680593
2026-03-30T14:42:56.421-05:00,1774899776,30.28881481,-97.73756321,174.4581,0.03141521,0.08601888,244.2502968,180,3,7.763463863,-9999,135507.0496,0.822128296,0.254257202,-0.50227356,135507.0232,-3.09587481,1.021214805,-0.25544602,0.00906024,-0.005655211,0.000711117,-0.006346703,0.002465159,0.007547855,XArbitraryZVertical,0.48205979,0.122179269,-0.866538086,-0.042454278,0.825072289,0.252676994,-0.505381167,0,0,0,-1,-1,135505.5707,unknown,2,2026-03-30T14:42:54.938-05:00,2026-03-30T10:54:16.334-05:00,3835,1.354185,0,0,2585.694,4,4,2026-03-30T14:42:54.938-05:00,796592575,0,0.9300003,99.59001,1,0.9,2026-03-30T14:37:50.703-05:00,72,1.2,2026-03-30T12:48:13.834-05:00,0.123680593
2026-03-30T14:42:56.455-05:00,1774899776,30.28881481,-97.73756321,174.4581,0.03141521,0.08601888,244.2502968,180,3,7.763463863,-9999,135507.0835,0.82649231,0.25163269,-0.498413086,135507.0534,-3.096090046,1.021106449,-0.255412163,0.012476543,-0.005079116,0.00138822,-0.003415346,0.001078844,0.002987742,XArbitraryZVertical,0.482027373,0.122115073,-0.866561333,-0.042532669,0.825024784,0.252644211,-0.505475044,0,0,0,-1,-1,135505.5707,unknown,2,2026-03-30T14:42:54.938-05:00,2026-03-30T10:54:16.334-05:00,3835,1.354185,0,0,2585.694,4,4,2026-03-30T14:42:54.938-05:00,796592575,0,0.9300003,99.59001,1,0.9,2026-03-30T14:37:50.703-05:00,72,1.2,2026-03-30T12:48:13.834-05:00,0.123680593
2026-03-30T14:42:56.486-05:00,1774899776,30.28881481,-97.73756321,174.4581,0.03141521,0.08601888,244.2502968,180,3,7.763463863,-9999,135507.1174,0.825866699,0.243118286,-0.494522095,135507.0835,-3.096275166,1.021079117,-0.255335225,0.010092882,0.001306039,0.004781125,0.002349734,-0.000876129,0.006560504,XArbitraryZVertical,0.482029981,0.122037811,-0.866567821,-0.042592474,0.825027585,0.252569765,-0.505507767,0,0,0,-1,-1,135505.5707,unknown,2,2026-03-30T14:42:54.938-05:00,2026-03-30T10:54:16.334-05:00,3835,1.354185,0,0,2585.694,4,4,2026-03-30T14:42:54.938-05:00,796592575,0,0.9300003,99.59001,1,0.9,2026-03-30T14:37:50.703-05:00,72,1.2,2026-03-30T12:48:13.834-05:00,0.123680593
2026-03-30T14:42:56.521-05:00,1774899776,30.28881481,-97.73756321,174.4581,0.03141521,0.08601888,244.2502968,180,3,7.763463863,-9999,135507.1514,0.827590942,0.244506836,-0.494979858,135507.1438,-3.096472067,1.0211031,-0.255107352,-0.003071501,0.001248317,-0.001688146,0.003631353,-0.009276837,0.008935928,XArbitraryZVertical,0.482061697,0.12189143,-0.866569221,-0.042623761,0.825088739,0.252349287,-0.505518019,0,0,0,-1,-1,135505.5707,unknown,2,2026-03-30T14:42:54.938-05:00,2026-03-30T10:54:16.334-05:00,3835,1.354185,0,0,2585.694,4,4,2026-03-30T14:42:54.938-05:00,796592575,0,0.9300003,99.59001,1,0.9,2026-03-30T14:37:50.703-05:00,72,1.2,2026-03-30T12:48:13.834-05:00,0.123680593
2026-03-30T14:42:56.556-05:00,1774899776,30.28881481,-97.73756321,174.4581,0.03141521,0.08601888,244.2502968,180,3,7.763463863,-9999,135507.1853,0.826156616,0.2421875,-0.500595093,135507.174,-3.096279834,1.021207309,-0.255332788,-0.012510942,0.001093308,-0.004208726,-0.000782609,-0.008686304,0.008133531,XArbitraryZVertical,0.482085935,0.122032908,-0.866536809,-0.04260175,0.825092793,0.25256741,-0.505402267,0,0,0,-1,-1,135505.5707,unknown,2,2026-03-30T14:42:54.938-05:00,2026-03-30T10:54:16.334-05:00,3835,1.354185,0,0,2585.694,4,4,2026-03-30T14:42:54.938-05:00,796592575,0,0.9300003,99.59001,1,0.9,2026-03-30T14:37:50.703-05:00,72,1.2,2026-03-30T12:48:13.834-05:00,0.123680593
2026-03-30T14:42:56.591-05:00,1774899776,30.28881481,-97.73756321,174.4581,0.03141521,0.08601888,244.2502968,180,3,7.763463863,-9999,135507.2192,0.821350098,0.242507935,-0.507461548,135507.2041,-3.095876695,1.021305821,-0.255772395,-0.024929417,-0.001000512,-0.00771373,-0.003804624,-0.011064768,-0.000123441,XArbitraryZVertical,0.482085978,0.122317826,-0.866499628,-0.042540182,0.825047791,0.252992749,-0.505262911,0,0,0,-1,-1,135505.5707,unknown,2,2026-03-30T14:42:54.938-05:00,2026-03-30T10:54:16.334-05:00,3835,1.354185,0,0,2585.694,4,4,2026-03-30T14:42:54.938-05:00,796592575,0,0.9300003,99.59001,1,0.9,2026-03-30T14:37:50.703-05:00,72,1.2,2026-03-30T12:48:13.834-05:00,0.123680593
2026-03-30T14:42:56.622-05:00,1774899776,30.28881481,-97.73756321,174.4581,0.03141521,0.08601888,244.2502968,180,3,7.763463863,-9999,135507.2531,0.822280884,0.253234863,-0.505783081,135507.2343,-3.095252945,1.021431822,-0.256398779,-0.03009362,-0.002537269,-0.007140769,-0.003992379,-0.006314844,-0.004155517,XArbitraryZVertical,0.482076562,0.12273597,-0.866451189,-0.042430247,0.824976206,0.25359872,-0.50507617,0,0,0,-1,-1,135505.5707,unknown,2,2026-03-30T14:42:54.938-05:00,2026-03-30T10:54:16.334-05:00,3835,1.354185,0,0,2585.694,4,4,2026-03-30T14:42:54.938-05:00,796592575,0,0.9300003,99.59001,1,0.9,2026-03-30T14:37:50.703-05:00,72,1.2,2026-03-30T12:48:13.834-05:00,0.123680593
2026-03-30T14:42:56.659-05:00,1774899776,30.28881481,-97.73756321,174.4581,0.03141521,0.08601888,244.2502968,180,3,7.763463863,-9999,135507.2871,0.820678711,0.257034302,-0.501586914,135507.2644,-3.094532445,1.021543423,-0.256965081,-0.029316399,-0.000162837,-0.005804944,-0.003681958,-0.000209749,-0.002171159,XArbitraryZVertical,0.482057189,0.123151775,-0.866411138,-0.042262951,0.824909925,0.254146457,-0.504909039,0,0,0,-1,-1,135505.5707,unknown,2,2026-03-30T14:42:54.938-05:00,2026-03-30T10:54:16.334-05:00,3835,1.354185,0,0,2585.694,4,4,2026-03-30T14:42:54.938-05:00,796592575,0,0.9300003,99.59001,1,0.9,2026-03-30T14:37:50.703-05:00,72,1.2,2026-03-30T12:48:13.834-05:00,0.123680593
2026-03-30T14:42:56.692-05:00,1774899776,30.28881481,-97.73756321,174.4581,0.03141521,0.08601888,244.2502968,180,3,7.763463863,-9999,135507.321,0.82232666,0.26751709,-0.492095947,135507.2946,-3.093897058,1.021595798,-0.257528272,-0.026276445,-0.001399986,-0.005608767,-0.004867971,0.002709329,0.004790902,XArbitraryZVertical,0.482017255,0.123546945,-0.866383715,-0.042128153,0.8248142,0.254691124,-0.504791021,0,0,0,-1,-1,135505.5707,unknown,2,2026-03-30T14:42:54.938-05:00,2026-03-30T10:54:16.334-05:00,3835,1.354185,0,0,2585.694,4,4,2026-03-30T14:42:54.938-05:00,796592575,0,0.9300003,99.59001,1,0.9,2026-03-30T14:37:50.703-05:00,72,1.2,2026-03-30T12:48:13.834-05:00,0.123680593
2026-03-30T14:42:56.726-05:00,1774899776,30.28881481,-97.73756321,174.4581,0.03141521,0.08601888,244.2502968,180,3,7.763463863,-9999,135507.3549,0.827163696,0.262527466,-0.495040894,135507.3247,-3.093572342,1.021461998,-0.257787983,-0.003072389,-0.006176239,-9.49E-05,-0.002684057,0.012590021,0.012862384,XArbitraryZVertical,0.48192836,0.123740126,-0.866409833,-0.042042483,0.824690282,0.254942268,-0.504866898,0,0,0,-1,-1,135505.5707,unknown,2,2026-03-30T14:42:54.938-05:00,2026-03-30T10:54:16.334-05:00,3835,1.354185,0,0,2585.694,4,4,2026-03-30T14:42:54.938-05:00,796592575,0,0.9300003,99.59001,1,0.9,2026-03-30T14:37:50.703-05:00,72,1.2,2026-03-30T12:48:13.834-05:00,0.123680593
2026-03-30T14:42:56.757-05:00,1774899776,30.28881481,-97.73756321,174.4581,0.03141521,0.08601888,244.2502968,180,3,7.763463863,-9999,135507.3888,0.820968628,0.260162354,-0.498886108,135507.3549,-3.09364746,1.021345044,-0.257775008,0.005823457,-0.005833001,0.001024081,0.000500262,0.008879393,0.010809064,XArbitraryZVertical,0.481882918,0.123718889,-0.866436915,-0.042064659,0.824633896,0.254929721,-0.504965007,0,0,0,-1,-1,135505.5707,unknown,2,2026-03-30T14:42:54.938-05:00,2026-03-30T10:54:16.334-05:00,3835,1.354185,0,0,2585.694,4,4,2026-03-30T14:42:54.938-05:00,796592575,0,0.9300003,99.59001,1,0.9,2026-03-30T14:37:50.703-05:00,72,1.2,2026-03-30T12:48:13.834-05:00,0.123680593
2026-03-30T14:42:56.792-05:00,1774899776,30.28881481,-97.73756321,174.4581,0.03141521,0.08601888,244.2502968,180,3,7.763463863,-9999,135507.4228,0.820373535,0.252243042,-0.503448486,135507.4152,-3.094361138,1.02106366,-0.257272083,0.015938008,0.000672262,0.002184192,-0.001526773,-0.002536088,0.005584359,XArbitraryZVertical,0.481826018,0.123335736,-0.866515058,-0.04223394,0.824601114,0.254443377,-0.505263984,0,0,0,-1,-1,135505.5707,unknown,2,2026-03-30T14:42:54.938-05:00,2026-03-30T10:54:16.334-05:00,3835,1.354185,0,0,2585.694,4,4,2026-03-30T14:42:54.938-05:00,796592575,0,0.9300003,99.59001,1,0.9,2026-03-30T14:37:50.703-05:00,72,1.2,2026-03-30T12:48:13.834-05:00,0.123680593
2026-03-30T14:42:56.828-05:00,1774899776,30.28881481,-97.73756321,174.4581,0.03141521,0.08601888,244.2502968,180,3,7.763463863,-9999,135507.4567,0.823059082,0.246139526,-0.507583618,135507.4454,-3.094742702,1.020957892,-0.256991724,0.012207653,-0.000984577,0.002326316,-0.00272423,-0.00511831,1.72E-05,XArbitraryZVertical,0.481815335,0.123124992,-0.866546547,-0.042324464,0.824608445,0.254172236,-0.505388439,0,0,0,-1,-1,135505.5707,unknown,2,2026-03-30T14:42:54.938-05:00,2026-03-30T10:54:16.334-05:00,3835,1.354185,0,0,2585.694,4,4,2026-03-30T14:42:54.938-05:00,796592575,0,0.9300003,99.59001,1,0.9,2026-03-30T14:37:50.703-05:00,72,1.2,2026-03-30T12:48:13.834-05:00,0.123680593
2026-03-30T14:42:56.862-05:00,1774899776,30.28881481,-97.73756321,174.4581,0.03141521,0.08601888,244.2502968,180,3,7.763463863,-9999,135507.4906,0.824279785,0.244293213,-0.501571655,135507.4755,-3.095046188,1.020845112,-0.256755627,0.010259017,-0.000144137,0.004633552,-0.000505924,-0.005775005,-0.001658916,XArbitraryZVertical,0.481794936,0.122952323,-0.866579016,-0.042391551,0.824602485,0.253943861,-0.505512714,0,0,0,-1,-1,135505.5707,unknown,2,2026-03-30T14:42:54.938-05:00,2026-03-30T10:54:16.334-05:00,3835,1.354185,0,0,2585.694,4,4,2026-03-30T14:42:54.938-05:00,796592575,0,0.9300003,99.59001,1,0.9,2026-03-30T14:37:50.703-05:00,72,1.2,2026-03-30T12:48:13.834-05:00,0.123680593
2026-03-30T14:42:56.893-05:00,1774899776,30.28881481,-97.73756321,174.4581,0.03141521,0.08601888,244.2502968,180,3,7.763463863,-9999,135507.5245,0.822998047,0.248519897,-0.500854492,135507.5057,-3.095063532,1.020730469,-0.256721473,-0.006368961,-0.007245189,0.000776229,0.00219965,-0.01031962,0.005566001,XArbitraryZVertical,0.481747706,0.12293582,-0.866608144,-0.042383673,0.824552,0.25391084,-0.505611837,0,0,0,-1,-1,135505.5707,unknown,2,2026-03-30T14:42:54.938-05:00,2026-03-30T10:54:16.334-05:00,3835,1.354185,0,0,2585.694,4,4,2026-03-30T14:42:54.938-05:00,796592575,0,0.9300003,99.59001,1,0.9,2026-03-30T14:37:50.703-05:00,72,1.2,2026-03-30T12:48:13.834-05:00,0.123680593
2026-03-30T14:42:56.928-05:00,1774899776,30.28881481,-97.73756321,174.4581,0.03141521,0.08601888,244.2502968,180,3,7.763463863,-9999,135507.5585,0.829925537,0.25213623,-0.50163269,135507.5358,-3.094836518,1.020663739,-0.256861793,-0.014486587,-0.002894441,-0.00204829,-0.001260996,-0.007296741,0.004854679,XArbitraryZVertical,0.48169904,0.123052511,-0.866621917,-0.042315377,0.824487865,0.254046559,-0.505648255,0,0,0,-1,-1,135505.5707,unknown,2,2026-03-30T14:42:54.938-05:00,2026-03-30T10:54:16.334-05:00,3835,1.354185,0,0,2585.694,4,4,2026-03-30T14:42:54.938-05:00,796592575,0,0.9300003,99.59001,1,0.9,2026-03-30T14:37:50.703-05:00,72,1.2,2026-03-30T12:48:13.834-05:00,0.123680593
2026-03-30T14:42:56.963-05:00,1774899776,30.28881481,-97.73756321,174.4581,0.03141521,0.08601888,244.2502968,180,3,7.763463863,-9999,135507.5924,0.82321167,0.25440979,-0.499282837,135507.566,-3.094500794,1.020627219,-0.257089756,-0.006561995,-0.002577649,0.00021913,0.00515461,-0.000772804,0.004061043,XArbitraryZVertical,0.481653087,0.123232581,-0.866626417,-0.042223145,0.824420035,0.254267037,-0.505648077,0,0,0,-1,-1,135505.5707,unknown,2,2026-03-30T14:42:54.938-05:00,2026-03-30T10:54:16.334-05:00,3835,1.354185,0,0,2585.694,4,4,2026-03-30T14:42:54.938-05:00,796592575,0,0.9300003,99.59001,1,0.9,2026-03-30T14:37:50.703-05:00,72,1.2,2026-03-30T12:48:13.834-05:00,0.123680593
2026-03-30T14:42:56.998-05:00,1774899776,30.28881481,-97.73756321,174.4581,0.03141521,0.08601888,244.2502968,180,3,7.763463863,-9999,135507.6263,0.821105957,0.251296997,-0.499572754,135507.5961,-3.094319237,1.020645774,-0.257116418,-0.007958957,-0.002112914,0.000530618,-0.000479579,0.000574648,0.006086886,XArbitraryZVertical,0.481648841,0.123287428,-0.866624393,-0.042152118,0.824423611,0.254292816,-0.505629182,0,0,0,-1,-1,135505.5707,unknown,2,2026-03-30T14:42:54.938-05:00,2026-03-30T10:54:16.334-05:00,3835,1.354185,0,0,2585.694,4,4,2026-03-30T14:42:54.938-05:00,796592575,0,0.9300003,99.59001,1,0.9,2026-03-30T14:37:50.703-05:00,72,1.2,2026-03-30T12:48:13.834-05:00,0.123680593
2026-03-30T14:42:57.028-05:00,1774899776,30.28881481,-97.73756321,174.4581,0.03141521,0.08601888,244.2502968,180,3,7.763463863,-9999,135507.6602,0.818237305,0.255111694,-0.499847412,135507.6263,-3.094032143,1.020701153,-0.257368777,-0.013267769,-0.002708004,-0.004985004,-0.004984677,-0.003224701,0.006236553,XArbitraryZVertical,0.481644638,0.123464375,-0.866604418,-0.04209258,0.824396849,0.254536867,-0.505549967,0,0,0,-1,-1,135505.5707,unknown,2,2026-03-30T14:42:54.938-05:00,2026-03-30T10:54:16.334-05:00,3835,1.354185,0,0,2585.694,4,4,2026-03-30T14:42:54.938-05:00,796592575,0,0.9300003,99.59001,1,0.9,2026-03-30T14:37:50.703-05:00,72,1.2,2026-03-30T12:48:13.834-05:00,0.123680593
2026-03-30T14:42:57.064-05:00,1774899776,30.28881481,-97.73756321,174.4581,0.03141521,0.08601888,244.2502968,180,3,7.763463863,-9999,135507.6941,0.820892334,0.253967285,-0.504058838,135507.6866,-3.093565802,1.020802854,-0.25787483,-0.007424438,-0.001356521,-0.001166965,-0.00184387,-0.001394749,0.002331674,XArbitraryZVertical,0.481638795,0.123793055,-0.8665642,-0.042020048,0.824338317,0.255026221,-0.505398691,0,0,0,-1,-1,135505.5707,unknown,2,2026-03-30T14:42:54.938-05:00,2026-03-30T10:54:16.334-05:00,3835,1.354185,0,0,2585.694,4,4,2026-03-30T14:42:54.938-05:00,796592575,0,0.9300003,99.59001,1,0.9,2026-03-30T14:37:50.703-05:00,72,1.2,2026-03-30T12:48:13.834-05:00,0.123680593
2026-03-30T14:42:57.098-05:00,1774899777,30.28881182,-97.7375697,174.6237,0.1580935,0.07850529,244.2502968,180,3,8.27965148,-9999,135507.7281,0.821792603,0.248504639,-0.505630493,135507.7168,-3.093370523,1.020845987,-0.258035349,-0.016052481,-0.00162616,-0.006767644,-0.003188789,-0.003853977,0.000992954,XArbitraryZVertical,0.481638638,0.123908476,-0.866550042,-0.041977163,0.824325323,0.255181432,-0.505341828,0,0,0,-1,-1,135505.5707,unknown,2,2026-03-30T14:42:54.938-05:00,2026-03-30T10:54:16.334-05:00,3835,1.354185,0,0,2585.694,4,4,2026-03-30T14:42:54.938-05:00,796592575,0,0.9300003,99.59001,1,0.9,2026-03-30T14:37:50.703-05:00,72,1.2,2026-03-30T12:48:13.834-05:00,0.123680593
2026-03-30T14:42:57.133-05:00,1774899777,30.28881182,-97.7375697,174.6237,0.1580935,0.07850529,244.2502968,180,3,8.27965148,-9999,135507.762,0.822463989,0.253219604,-0.499923706,135507.7469,-3.093012559,1.020973902,-0.258437152,-0.010701968,0.000142095,-0.003865365,-0.003410161,-0.003067553,-2.06E-05,XArbitraryZVertical,0.481655028,0.124165476,-0.866506484,-0.041927869,0.824302435,0.255569905,-0.505182743,0,0,0,-1,-1,135505.5707,unknown,2,2026-03-30T14:42:54.938-05:00,2026-03-30T10:54:16.334-05:00,3835,1.354185,0,0,2585.694,4,4,2026-03-30T14:42:54.938-05:00,796592575,0,0.9300003,99.59001,1,0.9,2026-03-30T14:37:50.703-05:00,72,1.2,2026-03-30T12:48:13.834-05:00,0.123680593
2026-03-30T14:42:57.164-05:00,1774899777,30.28881182,-97.7375697,174.6237,0.1580935,0.07850529,244.2502968,180,3,8.27965148,-9999,135507.7959,0.822540283,0.259475708,-0.497573853,135507.7771,-3.092720032,1.021057237,-0.258732203,-0.012374766,0.001159549,-0.003085274,-0.003036976,-0.003917336,0.004998267,XArbitraryZVertical,0.481660547,0.124361554,-0.866477745,-0.041878166,0.824280202,0.255855173,-0.50507462,0,0,0,-1,-1,135505.5707,unknown,2,2026-03-30T14:42:54.938-05:00,2026-03-30T10:54:16.334-05:00,3835,1.354185,0,0,2585.694,4,4,2026-03-30T14:42:54.938-05:00,796592575,0,0.9300003,99.59001,1,0.9,2026-03-30T14:37:50.703-05:00,72,1.2,2026-03-30T12:48:13.834-05:00,0.123680593
2026-03-30T14:42:57.199-05:00,1774899777,30.28881182,-97.7375697,174.6237,0.1580935,0.07850529,244.2502968,180,3,8.27965148,-9999,135507.8298,0.822097778,0.255233765,-0.498550415,135507.8072,-3.092583845,1.020991715,-0.258806272,-0.011661416,-0.005283927,-0.002208544,-0.001721203,0.001595706,0.008689225,XArbitraryZVertical,0.481620607,0.124427704,-0.86649247,-0.041833162,0.82423085,0.255926758,-0.505118668,0,0,0,-1,-1,135505.5707,unknown,2,2026-03-30T14:42:54.938-05:00,2026-03-30T10:54:16.334-05:00,3835,1.354185,0,0,2585.694,4,4,2026-03-30T14:42:54.938-05:00,796592575,0,0.9300003,99.59001,1,0.9,2026-03-30T14:37:50.703-05:00,72,1.2,2026-03-30T12:48:13.834-05:00,0.123680593
2026-03-30T14:42:57.235-05:00,1774899777,30.28881182,-97.7375697,174.6237,0.1580935,0.07850529,244.2502968,180,3,8.27965148,-9999,135507.8638,0.824905396,0.257110596,-0.502227783,135507.8374,-3.092227869,1.020935519,-0.259113846,-0.010908874,-0.002299781,-0.003816371,-0.002586961,-0.000334233,0.006573379,XArbitraryZVertical,0.481561102,0.12464737,-0.866498053,-0.041750333,0.824135363,0.256224066,-0.505123854,0,0,0,-1,-1,135505.5707,unknown,2,2026-03-30T14:42:54.938-05:00,2026-03-30T10:54:16.334-05:00,3835,1.354185,0,0,2585.694,4,4,2026-03-30T14:42:54.938-05:00,796592575,0,0.9300003,99.59001,1,0.9,2026-03-30T14:37:50.703-05:00,72,1.2,2026-03-30T12:48:13.834-05:00,0.123680593
2026-03-30T14:42:57.269-05:00,1774899777,30.28881182,-97.7375697,174.6237,0.1580935,0.07850529,244.2502968,180,3,8.27965148,-9999,135507.8977,0.820892334,0.255249023,-0.505630493,135507.8675,-3.091986049,1.0209714,-0.259391183,-0.010796755,-0.001287994,-0.000822851,0.000598848,0.000603139,0.002539396,XArbitraryZVertical,0.481549847,0.124824569,-0.866480463,-0.041715359,0.824092865,0.256492138,-0.505057156,0,0,0,-1,-1,135505.5707,unknown,2,2026-03-30T14:42:54.938-05:00,2026-03-30T10:54:16.334-05:00,3835,1.354185,0,0,2585.694,4,4,2026-03-30T14:42:54.938-05:00,796592575,0,0.9300003,99.59001,1,0.9,2026-03-30T14:37:50.703-05:00,72,1.2,2026-03-30T12:48:13.834-05:00,0.123680593
2026-03-30T14:42:57.300-05:00,1774899777,30.28881182,-97.7375697,174.6237,0.1580935,0.07850529,244.2502968,180,3,8.27965148,-9999,135507.9316,0.818984985,0.258255005,-0.499404907,135507.8977,-3.091924763,1.021035773,-0.259493673,-0.008530094,0.001262866,-0.003448161,-0.002081513,0.00184682,-0.001204848,XArbitraryZVertical,0.481569575,0.124882225,-0.866461059,-0.041717794,0.824102938,0.256591201,-0.504990339,0,0,0,-1,-1,135505.5707,unknown,2,2026-03-30T14:42:54.938-05:00,2026-03-30T10:54:16.334-05:00,3835,1.354185,0,0,2585.694,4,4,2026-03-30T14:42:54.938-05:00,796592575,0,0.9300003,99.59001,1,0.9,2026-03-30T14:37:50.703-05:00,72,1.2,2026-03-30T12:48:13.834-05:00,0.123680593
2026-03-30T14:42:57.335-05:00,1774899777,30.28881182,-97.7375697,174.6237,0.1580935,0.07850529,244.2502968,180,3,8.27965148,-9999,135507.9655,0.823364258,0.254043579,-0.497909546,135507.958,-3.091696043,1.021029686,-0.25967837,0.001266034,-0.005801253,0.003922103,-0.003106177,-0.001703858,0.007534027,XArbitraryZVertical,0.481544804,0.125017145,-0.866458067,-0.041663299,0.824059486,0.256769717,-0.50497061,0,0,0,-1,-1,135505.5707,unknown,2,2026-03-30T14:42:54.938-05:00,2026-03-30T10:54:16.334-05:00,3835,1.354185,0,0,2585.694,4,4,2026-03-30T14:42:54.938-05:00,796592575,0,0.9300003,99.59001,1,0.9,2026-03-30T14:37:50.703-05:00,72,1.2,2026-03-30T12:48:13.834-05:00,0.123680593
2026-03-30T14:42:55.335-05:00,1774899775,30.28882013,-97.73755775,174.4397,0.001087011,0.4579535,244.2502968,180,3,7.227611971,-9999,135505.964,0.818588257,0.251968384,-0.504867554,135505.9376,-3.091834817,1.020450378,-0.257678275,0.010036555,0.005877341,0.010453759,-0.001479506,0.004258037,0.004525185,XArbitraryZVertical,0.481386982,0.124132259,-0.866695115,-0.041200245,0.824202955,0.254836172,-0.505715489,0,0,0,-1,-1,135505.5707,unknown,2,2026-03-30T14:42:54.938-05:00,2026-03-30T10:54:16.334-05:00,3835,1.354185,0,0,2585.694,4,4,2026-03-30T14:42:54.938-05:00,796592575,0,0.9300003,99.59001,1,0.9,2026-03-30T14:37:50.703-05:00,72,1.2,2026-03-30T12:48:13.834-05:00,0.123680593
2026-03-30T14:42:55.370-05:00,1774899775,30.28882013,-97.73755775,174.4397,0.001087011,0.4579535,244.2502968,180,3,7.227611971,-9999,135505.9979,0.815689087,0.263473511,-0.504974365,135505.9678,-3.091827416,1.020659964,-0.257404556,0.001033495,0.004585497,0.005375825,-0.00553596,-0.002404779,0.000360608,XArbitraryZVertical,0.481488879,0.124011542,-0.866658469,-0.041143393,0.824368298,0.254571468,-0.505579174,0,0,0,-1,-1,135505.5707,unknown,2,2026-03-30T14:42:54.938-05:00,2026-03-30T10:54:16.334-05:00,3835,1.354185,0,0,2585.694,4,4,2026-03-30T14:42:54.938-05:00,796592575,0,0.9300003,99.59001,1,0.9,2026-03-30T14:37:50.703-05:00,72,1.2,2026-03-30T12:48:13.834-05:00,0.123680593
2026-03-30T14:42:55.400-05:00,1774899775,30.28882013,-97.73755775,174.4397,0.001087011,0.4579535,244.2502968,180,3,7.227611971,-9999,135506.0318,0.814361572,0.25328064,-0.498535156,135505.9979,-3.092028006,1.020809357,-0.257055441,0.028816344,0.006833121,0.007002451,-0.007350445,0.006706625,0.002343774,XArbitraryZVertical,0.481580719,0.123809435,-0.866635837,-0.041154537,0.824519575,0.254233837,-0.505502462,0,0,0,-1,-1,135505.5707,unknown,2,2026-03-30T14:42:54.938-05:00,2026-03-30T10:54:16.334-05:00,3835,1.354185,0,0,2585.694,4,4,2026-03-30T14:42:54.938-05:00,796592575,0,0.9300003,99.59001,1,0.9,2026-03-30T14:37:50.703-05:00,72,1.2,2026-03-30T12:48:13.834-05:00,0.123680593
2026-03-30T14:42:55.435-05:00,1774899775,30.28882013,-97.73755775,174.4397,0.001087011,0.4579535,244.2502968,180,3,7.227611971,-9999,135506.0658,0.823242188,0.249023438,-0.495513916,135506.0582,-3.093604354,1.02060173,-0.255763086,0.019640248,0.000473421,-0.001933389,-0.00284034,-0.007958204,0.009430766,XArbitraryZVertical,0.48164197,0.122876077,-0.866717559,-0.041510126,0.824693918,0.252983749,-0.505844951,0,0,0,-1,-1,135505.5707,unknown,2,2026-03-30T14:42:54.938-05:00,2026-03-30T10:54:16.334-05:00,3835,1.354185,0,0,2585.694,4,4,2026-03-30T14:42:54.938-05:00,796592575,0,0.9300003,99.59001,1,0.9,2026-03-30T14:37:50.703-05:00,72,1.2,2026-03-30T12:48:13.834-05:00,0.123680593
2026-03-30T14:42:55.470-05:00,1774899775,30.28882013,-97.73755775,174.4397,0.001087011,0.4579535,244.2502968,180,3,7.227611971,-9999,135506.0997,0.8253479,0.247070313,-0.497299194,135506.0884,-3.094115448,1.020508468,-0.255625503,0.01076746,0.002637353,-0.003332994,-0.001052737,-0.007565647,0.009281695,XArbitraryZVertical,0.481638611,0.122695513,-0.866736362,-0.041692371,0.824676454,0.252850622,-0.505940139,0,0,0,-1,-1,135505.5707,unknown,2,2026-03-30T14:42:54.938-05:00,2026-03-30T10:54:16.334-05:00,3835,1.354185,0,0,2585.694,4,4,2026-03-30T14:42:54.938-05:00,796592575,0,0.9300003,99.59001,1,0.9,2026-03-30T14:37:50.703-05:00,72,1.2,2026-03-30T12:48:13.834-05:00,0.123680593
2026-03-30T14:42:55.505-05:00,1774899775,30.28882013,-97.73755775,174.4397,0.001087011,0.4579535,244.2502968,180,3,7.227611971,-9999,135506.1336,0.82383728,0.23890686,-0.497009277,135506.1185,-3.094612479,1.020353226,-0.255335644,0.021225628,-0.002218236,0.001092494,-0.000929892,-0.004721731,0.006930351,XArbitraryZVertical,0.481613772,0.12245387,-0.866777808,-0.041827698,0.824660361,0.252570182,-0.506106436,0,0,0,-1,-1,135505.5707,unknown,2,2026-03-30T14:42:54.938-05:00,2026-03-30T10:54:16.334-05:00,3835,1.354185,0,0,2585.694,4,4,2026-03-30T14:42:54.938-05:00,796592575,0,0.9300003,99.59001,1,0.9,2026-03-30T14:37:50.703-05:00,72,1.2,2026-03-30T12:48:13.834-05:00,0.123680593
2026-03-30T14:42:55.536-05:00,1774899775,30.28882013,-97.73755775,174.4397,0.001087011,0.4579535,244.2502968,180,3,7.227611971,-9999,135506.1675,0.823471069,0.242828369,-0.505630493,135506.1487,-3.094754146,1.020241449,-0.255408173,-0.010716638,-0.003536079,-0.007760216,-0.001193345,-0.015961349,0.008615077,XArbitraryZVertical,0.481571031,0.122453428,-0.866798046,-0.041899922,0.82458806,0.252640367,-0.506188989,0,0,0,-1,-1,135505.5707,unknown,2,2026-03-30T14:42:54.938-05:00,2026-03-30T10:54:16.334-05:00,3835,1.354185,0,0,2585.694,4,4,2026-03-30T14:42:54.938-05:00,796592575,0,0.9300003,99.59001,1,0.9,2026-03-30T14:37:50.703-05:00,72,1.2,2026-03-30T12:48:13.834-05:00,0.123680593
2026-03-30T14:42:55.571-05:00,1774899775,30.28882013,-97.73755775,174.4397,0.001087011,0.4579535,244.2502968,180,3,7.227611971,-9999,135506.2015,0.822067261,0.252365112,-0.507583618,135506.1789,-3.094598142,1.020208886,-0.255793443,-0.012933741,-0.003041052,-0.009686396,-0.00051403,-0.008063883,0.001251519,XArbitraryZVertical,0.481531476,0.122658087,-0.86678986,-0.041924095,0.824488521,0.253013104,-0.506164849,0,0,0,-1,-1,135505.5707,unknown,2,2026-03-30T14:42:54.938-05:00,2026-03-30T10:54:16.334-05:00,3835,1.354185,0,0,2585.694,4,4,2026-03-30T14:42:54.938-05:00,796592575,0,0.9300003,99.59001,1,0.9,2026-03-30T14:37:50.703-05:00,72,1.2,2026-03-30T12:48:13.834-05:00,0.123680593
2026-03-30T14:42:55.606-05:00,1774899775,30.28882013,-97.73755775,174.4397,0.001087011,0.4579535,244.2502968,180,3,7.227611971,-9999,135506.2354,0.823272705,0.254684448,-0.501190186,135506.209,-3.094554264,1.020271721,-0.256127645,-0.004011286,0.000937584,-0.009321327,-0.00195384,-0.001123965,-0.000950277,XArbitraryZVertical,0.48154218,0.122811679,-0.866759067,-0.041990254,0.824448287,0.25333643,-0.506068826,0,0,0,-1,-1,135505.5707,unknown,2,2026-03-30T14:42:54.938-05:00,2026-03-30T10:54:16.334-05:00,3835,1.354185,0,0,2585.694,4,4,2026-03-30T14:42:54.938-05:00,796592575,0,0.9300003,99.59001,1,0.9,2026-03-30T14:37:50.703-05:00,72,1.2,2026-03-30T12:48:13.834-05:00,0.123680593
2026-03-30T14:42:55.641-05:00,1774899775,30.28882013,-97.73755775,174.4397,0.001087011,0.4579535,244.2502968,180,3,7.227611971,-9999,135506.2693,0.824874878,0.255523682,-0.500305176,135506.2392,-3.09452735,1.020473836,-0.256388251,-0.003957358,0.008208826,-0.008036454,-0.000733376,0.001034796,0.005074084,XArbitraryZVertical,0.481617358,0.122926471,-0.866697808,-0.042054463,0.824494183,0.253588527,-0.5058676,0,0,0,-1,-1,135505.5707,unknown,2,2026-03-30T14:42:54.938-05:00,2026-03-30T10:54:16.334-05:00,3835,1.354185,0,0,2585.694,4,4,2026-03-30T14:42:54.938-05:00,796592575,0,0.9300003,99.59001,1,0.9,2026-03-30T14:37:50.703-05:00,72,1.2,2026-03-30T12:48:13.834-05:00,0.123680593
2026-03-30T14:42:55.672-05:00,1774899775,30.28882013,-97.73755775,174.4397,0.001087011,0.4579535,244.2502968,180,3,7.227611971,-9999,135506.3032,0.823822021,0.257720947,-0.499725342,135506.2693,-3.094541312,1.020746445,-0.256590605,-0.002784701,0.009990087,-0.005897187,0.001827598,0.000732273,0.005173445,XArbitraryZVertical,0.481727941,0.123004756,-0.866621855,-0.042126516,0.824588418,0.253784269,-0.505616069,0,0,0,-1,-1,135505.5707,unknown,2,2026-03-30T14:42:54.938-05:00,2026-03-30T10:54:16.334-05:00,3835,1.354185,0,0,2585.694,4,4,2026-03-30T14:42:54.938-05:00,796592575,0,0.9300003,99.59001,1,0.9,2026-03-30T14:37:50.703-05:00,72,1.2,2026-03-30T12:48:13.834-05:00,0.123680593
2026-03-30T14:42:55.707-05:00,1774899775,30.28882013,-97.73755775,174.4397,0.001087011,0.4579535,244.2502968,180,3,7.227611971,-9999,135506.3372,0.82093811,0.256698608,-0.498352051,135506.3296,-3.094674468,1.021136089,-0.256838315,-0.000299373,0.005089744,-0.004464724,0.001516402,0.00102672,0.009412169,XArbitraryZVertical,0.481894692,0.123071421,-0.866512785,-0.042268501,0.824731708,0.25402385,-0.505261838,0,0,0,-1,-1,135505.5707,unknown,2,2026-03-30T14:42:54.938-05:00,2026-03-30T10:54:16.334-05:00,3835,1.354185,0,0,2585.694,4,4,2026-03-30T14:42:54.938-05:00,796592575,0,0.9300003,99.59001,1,0.9,2026-03-30T14:37:50.703-05:00,72,1.2,2026-03-30T12:48:13.834-05:00,0.123680593
2026-03-30T14:42:55.742-05:00,1774899775,30.28882013,-97.73755775,174.4397,0.001087011,0.4579535,244.2502968,180,3,7.227611971,-9999,135506.3711,0.825820923,0.252288818,-0.49822998,135506.3598,-3.094761622,1.021242712,-0.256914513,0.00032232,-0.001988713,-8.94E-05,0.002379298,0.00206691,0.007772982,XArbitraryZVertical,0.481943096,0.123081066,-0.866481413,-0.042331384,0.82476908,0.254097551,-0.505163789,0,0,0,-1,-1,135505.5707,unknown,2,2026-03-30T14:42:54.938-05:00,2026-03-30T10:54:16.334-05:00,3835,1.354185,0,0,2585.694,4,4,2026-03-30T14:42:54.938-05:00,796592575,0,0.9300003,99.59001,1,0.9,2026-03-30T14:37:50.703-05:00,72,1.2,2026-03-30T12:48:13.834-05:00,0.123680593
2026-03-30T14:42:55.776-05:00,1774899775,30.28882013,-97.73755775,174.4397,0.001087011,0.4579535,244.2502968,180,3,7.227611971,-9999,135506.405,0.821548462,0.253753662,-0.503753662,135506.3899,-3.094656159,1.021355598,-0.257094413,0.004919425,-0.001570441,0.002257513,-0.003528535,-0.002165884,0.004512668,XArbitraryZVertical,0.48197808,0.12318177,-0.86644727,-0.042336493,0.824787021,0.254271537,-0.505046785,0,0,0,-1,-1,135505.5707,unknown,2,2026-03-30T14:42:54.938-05:00,2026-03-30T10:54:16.334-05:00,3835,1.354185,0,0,2585.694,4,4,2026-03-30T14:42:54.938-05:00,796592575,0,0.9300003,99.59001,1,0.9,2026-03-30T14:37:50.703-05:00,72,1.2,2026-03-30T12:48:13.834-05:00,0.123680593
2026-03-30T14:42:55.807-05:00,1774899775,30.28882013,-97.73755775,174.4397,0.001087011,0.4579535,244.2502968,180,3,7.227611971,-9999,135506.4389,0.820770264,0.248580933,-0.501556396,135506.4201,-3.094803987,1.021351308,-0.256943651,0.010568943,-0.005909461,0.002054927,-0.003238678,-0.001791239,0.001301348,XArbitraryZVertical,0.48199157,0.123081143,-0.86645275,-0.042363543,0.824817538,0.254125744,-0.505070329,0,0,0,-1,-1,135505.5707,unknown,2,2026-03-30T14:42:54.938-05:00,2026-03-30T10:54:16.334-05:00,3835,1.354185,0,0,2585.694,4,4,2026-03-30T14:42:54.938-05:00,796592575,0,0.9300003,99.59001,1,0.9,2026-03-30T14:37:50.703-05:00,72,1.2,2026-03-30T12:48:13.834-05:00,0.123680593
2026-03-30T14:42:55.842-05:00,1774899775,30.28882013,-97.73755775,174.4397,0.001087011,0.4579535,244.2502968,180,3,7.227611971,-9999,135506.4729,0.823379517,0.254058838,-0.498077393,135506.4502,-3.094892747,1.021244874,-0.256907045,0.003117596,-0.006534967,-0.001171357,-0.003284454,-0.00520432,0.004476249,XArbitraryZVertical,0.481952434,0.123046202,-0.866478371,-0.042386528,0.824771702,0.254090339,-0.505162954,0,0,0,-1,-1,135505.5707,unknown,2,2026-03-30T14:42:54.938-05:00,2026-03-30T10:54:16.334-05:00,3835,1.354185,0,0,2585.694,4,4,2026-03-30T14:42:54.938-05:00,796592575,0,0.9300003,99.59001,1,0.9,2026-03-30T14:37:50.703-05:00,72,1.2,2026-03-30T12:48:13.834-05:00,0.123680593
2026-03-30T14:42:55.878-05:00,1774899775,30.28882013,-97.73755775,174.4397,0.001087011,0.4579535,244.2502968,180,3,7.227611971,-9999,135506.5068,0.825698853,0.252746582,-0.498657227,135506.4804,-3.094987259,1.021099653,-0.256812661,0.005571344,-0.005646199,0.002421382,-0.001232505,0.000487,0.007477224,XArbitraryZVertical,0.481899202,0.122985747,-0.866516264,-0.042395525,0.824718893,0.253999025,-0.505295336,0,0,0,-1,-1,135505.5707,unknown,2,2026-03-30T14:42:54.938-05:00,2026-03-30T10:54:16.334-05:00,3835,1.354185,0,0,2585.694,4,4,2026-03-30T14:42:54.938-05:00,796592575,0,0.9300003,99.59001,1,0.9,2026-03-30T14:37:50.703-05:00,72,1.2,2026-03-30T12:48:13.834-05:00,0.123680593
2026-03-30T14:42:55.912-05:00,1774899775,30.28882013,-97.73755775,174.4397,0.001087011,0.4579535,244.2502968,180,3,7.227611971,-9999,135506.5407,0.825439453,0.256530762,-0.501693726,135506.5106,-3.095082234,1.020933346,-0.256705696,0.002295101,-0.003468827,-0.000236305,0.00111711,-0.000828654,0.006819844,XArbitraryZVertical,0.481837418,0.122920203,-0.866559636,-0.04240041,0.824657977,0.253895581,-0.505446672,0,0,0,-1,-1,135505.5707,unknown,2,2026-03-30T14:42:54.938-05:00,2026-03-30T10:54:16.334-05:00,3835,1.354185,0,0,2585.694,4,4,2026-03-30T14:42:54.938-05:00,796592575,0,0.9300003,99.59001,1,0.9,2026-03-30T14:37:50.703-05:00,72,1.2,2026-03-30T12:48:13.834-05:00,0.123680593
2026-03-30T14:42:55.943-05:00,1774899775,30.28882013,-97.73755775,174.4397,0.001087011,0.4579535,244.2502968,180,3,7.227611971,-9999,135506.5746,0.825042725,0.252151489,-0.498809814,135506.5407,-3.095155097,1.020928573,-0.256567059,0.009914493,-0.000129054,0.002218931,3.67E-05,0.00191474,0.004431307,XArbitraryZVertical,0.481845544,0.122842881,-0.866566245,-0.042397918,0.824685574,0.25376147,-0.505469024,0,0,0,-1,-1,135505.5707,unknown,2,2026-03-30T14:42:54.938-05:00,2026-03-30T10:54:16.334-05:00,3835,1.354185,0,0,2585.694,4,4,2026-03-30T14:42:54.938-05:00,796592575,0,0.9300003,99.59001,1,0.9,2026-03-30T14:37:50.703-05:00,72,1.2,2026-03-30T12:48:13.834-05:00,0.123680593
2026-03-30T14:42:55.978-05:00,1774899775,30.28882013,-97.73755775,174.4397,0.001087011,0.4579535,244.2502968,180,3,7.227611971,-9999,135506.6086,0.822784424,0.248626709,-0.501068115,135506.601,-3.09546271,1.021171254,-0.256250844,0.00104974,0.001175852,-0.001126016,-0.002397358,-0.005546123,0.005280137,XArbitraryZVertical,0.481982622,0.122627063,-0.866517036,-0.042469092,0.824876606,0.253455609,-0.505310714,0,0,0,-1,-1,135505.5707,unknown,2,2026-03-30T14:42:54.938-05:00,2026-03-30T10:54:16.334-05:00,3835,1.354185,0,0,2585.694,4,4,2026-03-30T14:42:54.938-05:00,796592575,0,0.9300003,99.59001,1,0.9,2026-03-30T14:37:50.703-05:00,72,1.2,2026-03-30T12:48:13.834-05:00,0.123680593
2026-03-30T14:42:56.013-05:00,1774899775,30.28882013,-97.73755775,174.4397,0.001087011,0.4579535,244.2502968,180,3,7.227611971,-9999,135506.6425,0.821166992,0.251266479,-0.50289917,135506.6312,-3.095496271,1.021249914,-0.256287964,0.003350112,0.001396249,-0.000710182,-0.001986563,-0.001324832,0.001120925,XArbitraryZVertical,0.482017238,0.122633334,-0.866495468,-0.042497503,0.824908257,0.253491521,-0.505240917,0,0,0,-1,-1,135505.5707,unknown,2,2026-03-30T14:42:54.938-05:00,2026-03-30T10:54:16.334-05:00,3835,1.354185,0,0,2585.694,4,4,2026-03-30T14:42:54.938-05:00,796592575,0,0.9300003,99.59001,1,0.9,2026-03-30T14:37:50.703-05:00,72,1.2,2026-03-30T12:48:13.834-05:00,0.123680593
2026-03-30T14:42:56.048-05:00,1774899775,30.28882013,-97.73755775,174.4397,0.001087011,0.4579535,244.2502968,180,3,7.227611971,-9999,135506.6764,0.822631836,0.247512817,-0.503051758,135506.6613,-3.095559775,1.021323817,-0.256277669,-0.000791037,-0.001305628,-0.001178087,-0.001690447,-0.004412413,0.003945231,XArbitraryZVertical,0.482053578,0.122612013,-0.866476798,-0.042527044,0.824947834,0.253481567,-0.505181313,0,0,0,-1,-1,135505.5707,unknown,2,2026-03-30T14:42:54.938-05:00,2026-03-30T10:54:16.334-05:00,3835,1.354185,0,0,2585.694,4,4,2026-03-30T14:42:54.938-05:00,796592575,0,0.9300003,99.59001,1,0.9,2026-03-30T14:37:50.703-05:00,72,1.2,2026-03-30T12:48:13.834-05:00,0.123680593
2026-03-30T14:42:56.079-05:00,1774899776,30.28881481,-97.73756321,174.4581,0.03141521,0.08601888,244.2502968,180,3,7.763463863,-9999,135506.7103,0.821853638,0.251495361,-0.505264282,135506.6915,-3.095479476,1.021372806,-0.256300142,-0.002152156,0.001873949,9.37E-05,-0.002122343,-0.00554803,0.001506209,XArbitraryZVertical,0.482068938,0.122640027,-0.866465645,-0.04250072,0.824967742,0.253503293,-0.50513792,0,0,0,-1,-1,135505.5707,unknown,2,2026-03-30T14:42:54.938-05:00,2026-03-30T10:54:16.334-05:00,3835,1.354185,0,0,2585.694,4,4,2026-03-30T14:42:54.938-05:00,796592575,0,0.9300003,99.59001,1,0.9,2026-03-30T14:37:50.703-05:00,72,1.2,2026-03-30T12:48:13.834-05:00,0.123680593
2026-03-30T14:42:56.113-05:00,1774899776,30.28881481,-97.73756321,174.4581,0.03141521,0.08601888,244.2502968,180,3,7.763463863,-9999,135506.7443,0.824401855,0.256072998,-0.503479004,135506.7216,-3.095566714,1.021368618,-0.256199525,0.005947338,-0.000208401,0.000539762,-0.003240585,-0.001254529,-0.002276421,XArbitraryZVertical,0.482076627,0.122575645,-0.866469788,-0.042513757,0.824987352,0.253405958,-0.505154669,0,0,0,-1,-1,135505.5707,unknown,2,2026-03-30T14:42:54.938-05:00,2026-03-30T10:54:16.334-05:00,3835,1.354185,0,0,2585.694,4,4,2026-03-30T14:42:54.938-05:00,796592575,0,0.9300003,99.59001,1,0.9,2026-03-30T14:37:50.703-05:00,72,1.2,2026-03-30T12:48:13.834-05:00,0.123680593
2026-03-30T14:42:56.159-05:00,1774899776,30.28881481,-97.73756321,174.4581,0.03141521,0.08601888,244.2502968,180,3,7.763463863,-9999,135506.7782,0.823272705,0.227249146,-0.490325928,135506.7518,-3.096067235,1.021146103,-0.255336467,0.061513685,-0.009320805,0.012516369,1.20E-05,0.00717932,0.001912236,XArbitraryZVertical,0.482046254,0.122087036,-0.866556087,-0.042506764,0.825061202,0.252570987,-0.505452335,0,0,0,-1,-1,135505.5707,unknown,2,2026-03-30T14:42:54.938-05:00,2026-03-30T10:54:16.334-05:00,3835,1.354185,0,0,2585.694,4,4,2026-03-30T14:42:54.938-05:00,796592575,0,0.9300003,99.59001,1,0.9,2026-03-30T14:37:50.703-05:00,72,1.2,2026-03-30T12:48:13.834-05:00,0.123680593
2026-03-30T14:42:56.184-05:00,1774899776,30.28881481,-97.73756321,174.4581,0.03141521,0.08601888,244.2502968,180,3,7.763463863,-9999,135506.8121,0.822341919,0.257553101,-0.49861145,135506.782,-3.096124691,1.021325217,-0.255581911,-0.020206947,-0.003956312,0.001555153,-0.005167723,-0.029709786,0.01422894,XArbitraryZVertical,0.482117338,0.122175374,-0.86649928,-0.0426024,0.825098753,0.252808452,-0.50527209,0,0,0,-1,-1,135505.5707,unknown,2,2026-03-30T14:42:54.938-05:00,2026-03-30T10:54:16.334-05:00,3835,1.354185,0,0,2585.694,4,4,2026-03-30T14:42:54.938-05:00,796592575,0,0.9300003,99.59001,1,0.9,2026-03-30T14:37:50.703-05:00,72,1.2,2026-03-30T12:48:13.834-05:00,0.123680593
2026-03-30T14:42:56.214-05:00,1774899776,30.28881481,-97.73756321,174.4581,0.03141521,0.08601888,244.2502968,180,3,7.763463863,-9999,135506.846,0.820587158,0.245376587,-0.500732422,135506.8121,-3.095958217,1.021442562,-0.255737677,0.007259388,0.00252173,0.00346231,-0.005712271,0.001038551,0.005642951,XArbitraryZVertical,0.482151631,0.122280273,-0.866466665,-0.042575406,0.825124383,0.252959162,-0.505154669,0,0,0,-1,-1,135505.5707,unknown,2,2026-03-30T14:42:54.938-05:00,2026-03-30T10:54:16.334-05:00,3835,1.354185,0,0,2585.694,4,4,2026-03-30T14:42:54.938-05:00,796592575,0,0.9300003,99.59001,1,0.9,2026-03-30T14:37:50.703-05:00,72,1.2,2026-03-30T12:48:13.834-05:00,0.123680593
2026-03-30T14:42:56.250-05:00,1774899776,30.28881481,-97.73756321,174.4581,0.03141521,0.08601888,244.2502968,180,3,7.763463863,-9999,135506.88,0.822723389,0.247116089,-0.502075195,135506.8724,-3.096057255,1.0216537,-0.255580895,-0.006179055,0.002375775,-0.000818886,0.001669884,-0.002578676,0.000881195,XArbitraryZVertical,0.482255566,0.122184197,-0.866421587,-0.042593002,0.825264871,0.252807468,-0.505001187,0,0,0,-1,-1,135505.5707,unknown,2,2026-03-30T14:42:54.938-05:00,2026-03-30T10:54:16.334-05:00,3835,1.354185,0,0,2585.694,4,4,2026-03-30T14:42:54.938-05:00,796592575,0,0.9300003,99.59001,1,0.9,2026-03-30T14:37:50.703-05:00,72,1.2,2026-03-30T12:48:13.834-05:00,0.123680593
2026-03-30T14:42:56.284-05:00,1774899776,30.28881481,-97.73756321,174.4581,0.03141521,0.08601888,244.2502968,180,3,7.763463863,-9999,135506.9139,0.818115234,0.250427246,-0.497680664,135506.9026,-3.095842041,1.021722072,-0.25567074,-0.007183355,-0.001254116,0.001902277,-0.001137674,0.001149118,0.007923603,XArbitraryZVertical,0.482268321,0.122273426,-0.866405312,-0.042525818,0.82528013,0.252894402,-0.50493294,0,0,0,-1,-1,135505.5707,unknown,2,2026-03-30T14:42:54.938-05:00,2026-03-30T10:54:16.334-05:00,3835,1.354185,0,0,2585.694,4,4,2026-03-30T14:42:54.938-05:00,796592575,0,0.9300003,99.59001,1,0.9,2026-03-30T14:37:50.703-05:00,72,1.2,2026-03-30T12:48:13.834-05:00,0.123680593
2026-03-30T14:42:56.319-05:00,1774899776,30.28881481,-97.73756321,174.4581,0.03141521,0.08601888,244.2502968,180,3,7.763463863,-9999,135506.9478,0.821655273,0.253494263,-0.500671387,135506.9327,-3.095617083,1.021701201,-0.255762719,-0.004358629,-0.004756634,0.001627841,-0.003991187,-0.000648916,0.008065999,XArbitraryZVertical,0.482241767,0.122367831,-0.8664104,-0.042449524,0.825249672,0.252983391,-0.504938006,0,0,0,-1,-1,135505.5707,unknown,2,2026-03-30T14:42:54.938-05:00,2026-03-30T10:54:16.334-05:00,3835,1.354185,0,0,2585.694,4,4,2026-03-30T14:42:54.938-05:00,796592575,0,0.9300003,99.59001,1,0.9,2026-03-30T14:37:50.703-05:00,72,1.2,2026-03-30T12:48:13.834-05:00,0.123680593
2026-03-30T14:42:54.314-05:00,1774899774,30.28882026,-97.73755755,174.4698,0.01274284,0.4718571,244.2502968,180,3,7.158025154,-9999,135504.9463,0.815460205,0.287139893,-0.499786377,135504.9123,-3.05625519,1.02167876,-0.283521879,0.058649119,0.00526194,0.012964503,-0.001945019,-0.000106156,-0.004136741,XArbitraryZVertical,0.478307431,0.143782619,-0.865744348,-0.032176658,0.818931043,0.279738635,-0.501097143,0,0,0,-1,-1,135502.9975,unknown,2,2026-03-30T14:42:52.364-05:00,2026-03-30T10:54:16.334-05:00,3826,1.355206,0,0,2579.042,4,4,2026-03-30T14:42:52.364-05:00,796592572.4,0,0.9600029,99.58976,1,0.9,2026-03-30T14:37:50.703-05:00,72,1.2,2026-03-30T12:48:13.834-05:00,0.123680593
2026-03-30T14:42:54.350-05:00,1774899774,30.28882026,-97.73755755,174.4698,0.01274284,0.4718571,244.2502968,180,3,7.158025154,-9999,135504.9802,0.814788818,0.26663208,-0.493637085,135504.9726,-3.060536006,1.021026007,-0.280004896,0.09681204,0.013741347,0.009081416,-0.002970338,-0.003182352,0.008245945,XArbitraryZVertical,0.478513656,0.141256683,-0.866010313,-0.033124306,0.819437444,0.276360363,-0.502142489,0,0,0,-1,-1,135502.9975,unknown,2,2026-03-30T14:42:52.364-05:00,2026-03-30T10:54:16.334-05:00,3826,1.355206,0,0,2579.042,4,4,2026-03-30T14:42:52.364-05:00,796592572.4,0,0.9600029,99.58976,1,0.9,2026-03-30T14:37:50.703-05:00,72,1.2,2026-03-30T12:48:13.834-05:00,0.123680593
2026-03-30T14:42:54.384-05:00,1774899774,30.28882026,-97.73755755,174.4698,0.01274284,0.4718571,244.2502968,180,3,7.158025154,-9999,135505.0141,0.820144653,0.239532471,-0.48059082,135505.0028,-3.061724568,1.022020865,-0.280631834,-0.058704361,0.067933396,-0.063164048,-0.028712094,-0.043228775,0.020447314,XArbitraryZVertical,0.478996007,0.141225206,-0.865720249,-0.033862265,0.819788694,0.276962817,-0.501236558,0,0,0,-1,-1,135502.9975,unknown,2,2026-03-30T14:42:52.364-05:00,2026-03-30T10:54:16.334-05:00,3826,1.355206,0,0,2579.042,4,4,2026-03-30T14:42:52.364-05:00,796592572.4,0,0.9600029,99.58976,1,0.9,2026-03-30T14:37:50.703-05:00,72,1.2,2026-03-30T12:48:13.834-05:00,0.123680593
2026-03-30T14:42:54.420-05:00,1774899774,30.28882026,-97.73755755,174.4698,0.01274284,0.4718571,244.2502968,180,3,7.158025154,-9999,135505.048,0.760284424,0.25328064,-0.49822998,135505.033,-3.061862975,1.021332226,-0.280374803,0.024923582,0.008604361,-0.005597882,0.089141607,0.033846259,0.011252701,XArbitraryZVertical,0.478720835,0.141093145,-0.865896114,-0.033810753,0.819504082,0.276715845,-0.501838148,0,0,0,-1,-1,135502.9975,unknown,2,2026-03-30T14:42:52.364-05:00,2026-03-30T10:54:16.334-05:00,3826,1.355206,0,0,2579.042,4,4,2026-03-30T14:42:52.364-05:00,796592572.4,0,0.9600029,99.58976,1,0.9,2026-03-30T14:37:50.703-05:00,72,1.2,2026-03-30T12:48:13.834-05:00,0.123680593
2026-03-30T14:42:54.450-05:00,1774899774,30.28882026,-97.73755755,174.4698,0.01274284,0.4718571,244.2502968,180,3,7.158025154,-9999,135505.082,0.821502686,0.260025024,-0.504684448,135505.0631,-3.062276654,1.021241464,-0.28076724,-0.020997683,-0.029301675,-0.004776749,0.007660508,-0.014123023,0.00867635,XArbitraryZVertical,0.478690606,0.14116451,-0.865890615,-0.034079297,0.819365859,0.277092934,-0.501855791,0,0,0,-1,-1,135502.9975,unknown,2,2026-03-30T14:42:52.364-05:00,2026-03-30T10:54:16.334-05:00,3826,1.355206,0,0,2579.042,4,4,2026-03-30T14:42:52.364-05:00,796592572.4,0,0.9600029,99.58976,1,0.9,2026-03-30T14:37:50.703-05:00,72,1.2,2026-03-30T12:48:13.834-05:00,0.123680593
2026-03-30T14:42:54.485-05:00,1774899774,30.28882026,-97.73755755,174.4698,0.01274284,0.4718571,244.2502968,180,3,7.158025154,-9999,135505.1159,0.822097778,0.269943237,-0.509857178,135505.0933,-3.061837003,1.020764699,-0.281284908,-0.012430916,-0.014033699,-0.009583087,-0.012470305,-0.014101624,-0.007777512,XArbitraryZVertical,0.478426538,0.141500549,-0.865985489,-0.033981647,0.819004059,0.277590275,-0.502171278,0,0,0,-1,-1,135502.9975,unknown,2,2026-03-30T14:42:52.364-05:00,2026-03-30T10:54:16.334-05:00,3826,1.355206,0,0,2579.042,4,4,2026-03-30T14:42:52.364-05:00,796592572.4,0,0.9600029,99.58976,1,0.9,2026-03-30T14:37:50.703-05:00,72,1.2,2026-03-30T12:48:13.834-05:00,0.123680593
2026-03-30T14:42:54.521-05:00,1774899774,30.28882026,-97.73755755,174.4698,0.01274284,0.4718571,244.2502968,180,3,7.158025154,-9999,135505.1498,0.819595337,0.28352356,-0.506347656,135505.1234,-3.061538055,1.02051303,-0.281796882,-0.025067104,-0.007455774,-0.01020518,0.001510262,-0.009786904,-0.009537876,XArbitraryZVertical,0.478270014,0.141796607,-0.86602446,-0.033959316,0.818756402,0.278082103,-0.502303004,0,0,0,-1,-1,135502.9975,unknown,2,2026-03-30T14:42:52.364-05:00,2026-03-30T10:54:16.334-05:00,3826,1.355206,0,0,2579.042,4,4,2026-03-30T14:42:52.364-05:00,796592572.4,0,0.9600029,99.58976,1,0.9,2026-03-30T14:37:50.703-05:00,72,1.2,2026-03-30T12:48:13.834-05:00,0.123680593
2026-03-30T14:42:54.555-05:00,1774899774,30.28882026,-97.73755755,174.4698,0.01274284,0.4718571,244.2502968,180,3,7.158025154,-9999,135505.1837,0.799819946,0.288360596,-0.487106323,135505.1536,-3.061205757,1.02043812,-0.282108711,0.008866695,-0.01411881,0.004383693,0.000996232,0.004409432,-0.005356252,XArbitraryZVertical,0.47819793,0.142011507,-0.86603182,-0.033886233,0.818644762,0.278381616,-0.502318919,0,0,0,-1,-1,135502.9975,unknown,2,2026-03-30T14:42:52.364-05:00,2026-03-30T10:54:16.334-05:00,3826,1.355206,0,0,2579.042,4,4,2026-03-30T14:42:52.364-05:00,796592572.4,0,0.9600029,99.58976,1,0.9,2026-03-30T14:37:50.703-05:00,72,1.2,2026-03-30T12:48:13.834-05:00,0.123680593
2026-03-30T14:42:54.586-05:00,1774899774,30.28882026,-97.73755755,174.4698,0.01274284,0.4718571,244.2502968,180,3,7.158025154,-9999,135505.2177,0.817321777,0.28175354,-0.487289429,135505.1837,-3.061635255,1.020106904,-0.281750276,0.024167975,0.000204078,-0.0032159,-0.01616478,0.00991118,0.013079226,XArbitraryZVertical,0.478103455,0.141760211,-0.866122234,-0.033961264,0.818563342,0.278037339,-0.502642274,0,0,0,-1,-1,135502.9975,unknown,2,2026-03-30T14:42:52.364-05:00,2026-03-30T10:54:16.334-05:00,3826,1.355206,0,0,2579.042,4,4,2026-03-30T14:42:52.364-05:00,796592572.4,0,0.9600029,99.58976,1,0.9,2026-03-30T14:37:50.703-05:00,72,1.2,2026-03-30T12:48:13.834-05:00,0.123680593
2026-03-30T14:42:54.621-05:00,1774899774,30.28882026,-97.73755755,174.4698,0.01274284,0.4718571,244.2502968,180,3,7.158025154,-9999,135505.2516,0.818649292,0.28678894,-0.495223999,135505.244,-3.063083628,1.019521041,-0.281643458,0.024165623,-0.000559632,-0.011441838,-0.002986491,-0.000362158,0.007623315,XArbitraryZVertical,0.477957729,0.141378086,-0.866242989,-0.034521021,0.818294048,0.27793473,-0.50313729,0,0,0,-1,-1,135502.9975,unknown,2,2026-03-30T14:42:52.364-05:00,2026-03-30T10:54:16.334-05:00,3826,1.355206,0,0,2579.042,4,4,2026-03-30T14:42:52.364-05:00,796592572.4,0,0.9600029,99.58976,1,0.9,2026-03-30T14:37:50.703-05:00,72,1.2,2026-03-30T12:48:13.834-05:00,0.123680593
2026-03-30T14:42:54.660-05:00,1774899774,30.28882026,-97.73755755,174.4698,0.01274284,0.4718571,244.2502968,180,3,7.158025154,-9999,135505.2855,0.821640015,0.288894653,-0.504730225,135505.2742,-3.064277511,1.019302584,-0.281142877,0.063939862,0.007840957,0.002747129,-0.000889242,0.014187336,0.002778411,XArbitraryZVertical,0.477972882,0.140881073,-0.866300424,-0.034900693,0.818302512,0.27745384,-0.503388882,0,0,0,-1,-1,135502.9975,unknown,2,2026-03-30T14:42:52.364-05:00,2026-03-30T10:54:16.334-05:00,3826,1.355206,0,0,2579.042,4,4,2026-03-30T14:42:52.364-05:00,796592572.4,0,0.9600029,99.58976,1,0.9,2026-03-30T14:37:50.703-05:00,72,1.2,2026-03-30T12:48:13.834-05:00,0.123680593
2026-03-30T14:42:54.691-05:00,1774899774,30.28882026,-97.73755755,174.4698,0.01274284,0.4718571,244.2502968,180,3,7.158025154,-9999,135505.3194,0.82258606,0.270263672,-0.508483887,135505.3044,-3.066088059,1.019081101,-0.279847889,0.074595571,0.008893664,0.007472947,0.00715667,0.003972352,-0.003993511,XArbitraryZVertical,0.478069517,0.139894641,-0.866388633,-0.035353859,0.818496346,0.276209444,-0.503758073,0,0,0,-1,-1,135502.9975,unknown,2,2026-03-30T14:42:52.364-05:00,2026-03-30T10:54:16.334-05:00,3826,1.355206,0,0,2579.042,4,4,2026-03-30T14:42:52.364-05:00,796592572.4,0,0.9600029,99.58976,1,0.9,2026-03-30T14:37:50.703-05:00,72,1.2,2026-03-30T12:48:13.834-05:00,0.123680593
2026-03-30T14:42:54.722-05:00,1774899774,30.28882026,-97.73755755,174.4698,0.01274284,0.4718571,244.2502968,180,3,7.158025154,-9999,135505.3534,0.818496704,0.269058228,-0.499938965,135505.3345,-3.067774521,1.019007297,-0.278531599,0.075811081,0.015890433,0.01208484,0.001346052,-0.002910525,-0.003437757,XArbitraryZVertical,0.478220999,0.138925877,-0.866444179,-0.035758679,0.818767965,0.274944127,-0.504008532,0,0,0,-1,-1,135502.9975,unknown,2,2026-03-30T14:42:52.364-05:00,2026-03-30T10:54:16.334-05:00,3826,1.355206,0,0,2579.042,4,4,2026-03-30T14:42:52.364-05:00,796592572.4,0,0.9600029,99.58976,1,0.9,2026-03-30T14:37:50.703-05:00,72,1.2,2026-03-30T12:48:13.834-05:00,0.123680593
2026-03-30T14:42:54.756-05:00,1774899774,30.28882026,-97.73755755,174.4698,0.01274284,0.4718571,244.2502968,180,3,7.158025154,-9999,135505.3873,0.815612793,0.271835327,-0.489471436,135505.3647,-3.06955787,1.018909879,-0.27711829,0.061357867,0.010015022,0.012311657,0.001797497,-0.00406912,0.00825876,XArbitraryZVertical,0.478372161,0.137892322,-0.866508383,-0.03618032,0.819049001,0.273585021,-0.504291594,0,0,0,-1,-1,135502.9975,unknown,2,2026-03-30T14:42:52.364-05:00,2026-03-30T10:54:16.334-05:00,3826,1.355206,0,0,2579.042,4,4,2026-03-30T14:42:52.364-05:00,796592572.4,0,0.9600029,99.58976,1,0.9,2026-03-30T14:37:50.703-05:00,72,1.2,2026-03-30T12:48:13.834-05:00,0.123680593
2026-03-30T14:42:54.792-05:00,1774899774,30.28882026,-97.73755755,174.4698,0.01274284,0.4718571,244.2502968,180,3,7.158025154,-9999,135505.4212,0.818481445,0.266571045,-0.494140625,135505.3948,-3.071094068,1.018680218,-0.275704977,0.070108034,0.000591568,0.016037157,-0.003557265,-0.000649482,0.015637696,XArbitraryZVertical,0.478447399,0.13692005,-0.866608239,-0.036486006,0.819261611,0.27222535,-0.504681945,0,0,0,-1,-1,135502.9975,unknown,2,2026-03-30T14:42:52.364-05:00,2026-03-30T10:54:16.334-05:00,3826,1.355206,0,0,2579.042,4,4,2026-03-30T14:42:52.364-05:00,796592572.4,0,0.9600029,99.58976,1,0.9,2026-03-30T14:37:50.703-05:00,72,1.2,2026-03-30T12:48:13.834-05:00,0.123680593
2026-03-30T14:42:54.827-05:00,1774899774,30.28882026,-97.73755755,174.4698,0.01274284,0.4718571,244.2502968,180,3,7.158025154,-9999,135505.4551,0.814071655,0.279769897,-0.500259399,135505.425,-3.07243509,1.018336315,-0.274472567,0.051740348,-0.0016761,0.009844407,-0.001181424,-0.004651397,0.01195991,XArbitraryZVertical,0.478449682,0.136074374,-0.866729213,-0.036743691,0.819372892,0.271039277,-0.505139351,0,0,0,-1,-1,135502.9975,unknown,2,2026-03-30T14:42:52.364-05:00,2026-03-30T10:54:16.334-05:00,3826,1.355206,0,0,2579.042,4,4,2026-03-30T14:42:52.364-05:00,796592572.4,0,0.9600029,99.58976,1,0.9,2026-03-30T14:37:50.703-05:00,72,1.2,2026-03-30T12:48:13.834-05:00,0.123680593
2026-03-30T14:42:54.857-05:00,1774899774,30.28882026,-97.73755755,174.4698,0.01274284,0.4718571,244.2502968,180,3,7.158025154,-9999,135505.4891,0.813796997,0.280258179,-0.496688843,135505.4551,-3.073701508,1.017941889,-0.273252975,0.066318274,0.002087297,0.015839748,-0.003627896,0.008073628,0.005223632,XArbitraryZVertical,0.478423258,0.135252903,-0.866862777,-0.036969073,0.819454253,0.269865155,-0.505635679,0,0,0,-1,-1,135502.9975,unknown,2,2026-03-30T14:42:52.364-05:00,2026-03-30T10:54:16.334-05:00,3826,1.355206,0,0,2579.042,4,4,2026-03-30T14:42:52.364-05:00,796592572.4,0,0.9600029,99.58976,1,0.9,2026-03-30T14:37:50.703-05:00,72,1.2,2026-03-30T12:48:13.834-05:00,0.123680593
2026-03-30T14:42:54.893-05:00,1774899774,30.28882026,-97.73755755,174.4698,0.01274284,0.4718571,244.2502968,180,3,7.158025154,-9999,135505.523,0.823516846,0.266220093,-0.500045776,135505.5154,-3.077617575,1.017109862,-0.269893245,0.070413277,0.010787858,0.005926563,-0.005972445,0.000293374,0.005860329,XArbitraryZVertical,0.478483689,0.132882463,-0.867160436,-0.037794098,0.8197999,0.266628534,-0.506791234,0,0,0,-1,-1,135502.9975,unknown,2,2026-03-30T14:42:52.364-05:00,2026-03-30T10:54:16.334-05:00,3826,1.355206,0,0,2579.042,4,4,2026-03-30T14:42:52.364-05:00,796592572.4,0,0.9600029,99.58976,1,0.9,2026-03-30T14:37:50.703-05:00,72,1.2,2026-03-30T12:48:13.834-05:00,0.123680593
2026-03-30T14:42:54.927-05:00,1774899774,30.28882026,-97.73755755,174.4698,0.01274284,0.4718571,244.2502968,180,3,7.158025154,-9999,135505.5569,0.820175171,0.267227173,-0.498657227,135505.5456,-3.079268725,1.01697149,-0.268633032,0.063060738,0.012538185,0.009782753,0.008537292,0.001904935,0.006302714,XArbitraryZVertical,0.478591379,0.131946198,-0.867226446,-0.03819467,0.820014894,0.265413731,-0.507080972,0,0,0,-1,-1,135502.9975,unknown,2,2026-03-30T14:42:52.364-05:00,2026-03-30T10:54:16.334-05:00,3826,1.355206,0,0,2579.042,4,4,2026-03-30T14:42:52.364-05:00,796592572.4,0,0.9600029,99.58976,1,0.9,2026-03-30T14:37:50.703-05:00,72,1.2,2026-03-30T12:48:13.834-05:00,0.123680593
2026-03-30T14:42:54.962-05:00,1774899774,30.28882026,-97.73755755,174.4698,0.01274284,0.4718571,244.2502968,180,3,7.158025154,-9999,135505.5908,0.819000244,0.253097534,-0.501052856,135505.5758,-3.080925911,1.016999287,-0.267182438,0.077371471,0.015776798,0.014550961,-0.000317812,0.002693385,0.008343399,XArbitraryZVertical,0.4787788,0.130922923,-0.8672617,-0.038562719,0.820355535,0.2640149,-0.507260084,0,0,0,-1,-1,135502.9975,unknown,2,2026-03-30T14:42:52.364-05:00,2026-03-30T10:54:16.334-05:00,3826,1.355206,0,0,2579.042,4,4,2026-03-30T14:42:52.364-05:00,796592572.4,0,0.9600029,99.58976,1,0.9,2026-03-30T14:37:50.703-05:00,72,1.2,2026-03-30T12:48:13.834-05:00,0.123680593
2026-03-30T14:42:54.993-05:00,1774899774,30.28882026,-97.73755755,174.4698,0.01274284,0.4718571,244.2502968,180,3,7.158025154,-9999,135505.6248,0.819778442,0.245162964,-0.50440979,135505.6059,-3.082615011,1.017001444,-0.265705668,0.061436716,0.012981545,0.009708801,-0.001107395,-0.010530382,0.005463839,XArbitraryZVertical,0.478956696,0.129880918,-0.86730352,-0.038936592,0.820687413,0.26259023,-0.507462859,0,0,0,-1,-1,135502.9975,unknown,2,2026-03-30T14:42:52.364-05:00,2026-03-30T10:54:16.334-05:00,3826,1.355206,0,0,2579.042,4,4,2026-03-30T14:42:52.364-05:00,796592572.4,0,0.9600029,99.58976,1,0.9,2026-03-30T14:37:50.703-05:00,72,1.2,2026-03-30T12:48:13.834-05:00,0.123680593
2026-03-30T14:42:55.028-05:00,1774899774,30.28882026,-97.73755755,174.4698,0.01274284,0.4718571,244.2502968,180,3,7.158025154,-9999,135505.6587,0.815719604,0.250427246,-0.519668579,135505.6361,-3.08371587,1.017137576,-0.264707143,0.042542923,0.016724618,0.011640925,-0.001322806,-0.013564557,0.001980245,XArbitraryZVertical,0.479131773,0.129183445,-0.867300045,-0.039180253,0.820979118,0.261626631,-0.507488787,0,0,0,-1,-1,135505.5707,unknown,2,2026-03-30T14:42:54.938-05:00,2026-03-30T10:54:16.334-05:00,3835,1.354185,0,0,2585.694,4,4,2026-03-30T14:42:54.938-05:00,796592575,0,0.9300003,99.59001,1,0.9,2026-03-30T14:37:50.703-05:00,72,1.2,2026-03-30T12:48:13.834-05:00,0.123680593
2026-03-30T14:42:55.064-05:00,1774899774,30.28882026,-97.73755755,174.4698,0.01274284,0.4718571,244.2502968,180,3,7.158025154,-9999,135505.6926,0.813842773,0.252349854,-0.518844604,135505.6662,-3.084701971,1.017407143,-0.263817422,0.034965098,0.015636817,0.006692226,-0.00464797,-0.010844141,-0.011714578,XArbitraryZVertical,0.479351804,0.128557679,-0.867261002,-0.039409119,0.82131356,0.260767788,-0.507389545,0,0,0,-1,-1,135505.5707,unknown,2,2026-03-30T14:42:54.938-05:00,2026-03-30T10:54:16.334-05:00,3835,1.354185,0,0,2585.694,4,4,2026-03-30T14:42:54.938-05:00,796592575,0,0.9300003,99.59001,1,0.9,2026-03-30T14:37:50.703-05:00,72,1.2,2026-03-30T12:48:13.834-05:00,0.123680593
2026-03-30T14:42:55.098-05:00,1774899775,30.28882013,-97.73755775,174.4397,0.001087011,0.4579535,244.2502968,180,3,7.227611971,-9999,135505.7265,0.81817627,0.253173828,-0.513595581,135505.6964,-3.085557921,1.017697342,-0.263097851,0.044669278,0.017440112,0.003020873,-0.006999314,-0.008318365,-0.012037575,XArbitraryZVertical,0.479564349,0.12803603,-0.867210879,-0.039624057,0.821620226,0.260073036,-0.507249594,0,0,0,-1,-1,135505.5707,unknown,2,2026-03-30T14:42:54.938-05:00,2026-03-30T10:54:16.334-05:00,3835,1.354185,0,0,2585.694,4,4,2026-03-30T14:42:54.938-05:00,796592575,0,0.9300003,99.59001,1,0.9,2026-03-30T14:37:50.703-05:00,72,1.2,2026-03-30T12:48:13.834-05:00,0.123680593
2026-03-30T14:42:55.128-05:00,1774899775,30.28882013,-97.73755775,174.4397,0.001087011,0.4579535,244.2502968,180,3,7.227611971,-9999,135505.7604,0.819335938,0.25642395,-0.501373291,135505.7265,-3.086802065,1.017958531,-0.262205066,0.052982293,0.018197937,0.002821038,-0.006337225,-0.005380988,-0.007522285,XArbitraryZVertical,0.479796194,0.127346906,-0.867168604,-0.03996322,0.821950018,0.259210885,-0.50715673,0,0,0,-1,-1,135505.5707,unknown,2,2026-03-30T14:42:54.938-05:00,2026-03-30T10:54:16.334-05:00,3835,1.354185,0,0,2585.694,4,4,2026-03-30T14:42:54.938-05:00,796592575,0,0.9300003,99.59001,1,0.9,2026-03-30T14:37:50.703-05:00,72,1.2,2026-03-30T12:48:13.834-05:00,0.123680593
2026-03-30T14:42:55.164-05:00,1774899775,30.28882013,-97.73755775,174.4397,0.001087011,0.4579535,244.2502968,180,3,7.227611971,-9999,135505.7944,0.831741333,0.257888794,-0.496704102,135505.7868,-3.089584418,1.018410568,-0.260036721,0.050605685,0.026110215,0.008715743,0.002402246,-0.003759205,0.008619964,XArbitraryZVertical,0.480262077,0.125733535,-0.867113111,-0.040671175,0.822655618,0.25711605,-0.507078826,0,0,0,-1,-1,135505.5707,unknown,2,2026-03-30T14:42:54.938-05:00,2026-03-30T10:54:16.334-05:00,3835,1.354185,0,0,2585.694,4,4,2026-03-30T14:42:54.938-05:00,796592575,0,0.9300003,99.59001,1,0.9,2026-03-30T14:37:50.703-05:00,72,1.2,2026-03-30T12:48:13.834-05:00,0.123680593
2026-03-30T14:42:55.199-05:00,1774899775,30.28882013,-97.73755775,174.4397,0.001087011,0.4579535,244.2502968,180,3,7.227611971,-9999,135505.8283,0.830154419,0.250762939,-0.489242554,135505.817,-3.090774638,1.018799476,-0.259079444,0.036683124,0.026731389,0.001588853,0.009426951,-0.001552224,0.016470134,XArbitraryZVertical,0.480546131,0.125026237,-0.867043564,-0.040978833,0.823062003,0.256190836,-0.506887734,0,0,0,-1,-1,135505.5707,unknown,2,2026-03-30T14:42:54.938-05:00,2026-03-30T10:54:16.334-05:00,3835,1.354185,0,0,2585.694,4,4,2026-03-30T14:42:54.938-05:00,796592575,0,0.9300003,99.59001,1,0.9,2026-03-30T14:37:50.703-05:00,72,1.2,2026-03-30T12:48:13.834-05:00,0.123680593
2026-03-30T14:42:55.234-05:00,1774899775,30.28882013,-97.73755775,174.4397,0.001087011,0.4579535,244.2502968,180,3,7.227611971,-9999,135505.8622,0.828216553,0.253463745,-0.483963013,135505.8471,-3.091513152,1.019316194,-0.258533351,0.027928868,0.017046679,0.005021938,0.01153326,-0.001314223,0.020207405,XArbitraryZVertical,0.480839341,0.124602259,-0.866931693,-0.041198405,0.823442876,0.255662918,-0.50653559,0,0,0,-1,-1,135505.5707,unknown,2,2026-03-30T14:42:54.938-05:00,2026-03-30T10:54:16.334-05:00,3835,1.354185,0,0,2585.694,4,4,2026-03-30T14:42:54.938-05:00,796592575,0,0.9300003,99.59001,1,0.9,2026-03-30T14:37:50.703-05:00,72,1.2,2026-03-30T12:48:13.834-05:00,0.123680593
2026-03-30T14:42:55.264-05:00,1774899775,30.28882013,-97.73755775,174.4397,0.001087011,0.4579535,244.2502968,180,3,7.227611971,-9999,135505.8961,0.826126099,0.251541138,-0.493362427,135505.8773,-3.091817266,1.019780821,-0.258198776,-0.000999229,0.016680676,0.00248764,0.000666082,-0.006667018,0.02159369,XArbitraryZVertical,0.481073797,0.124375054,-0.86683042,-0.041277753,0.823750973,0.255339444,-0.506197691,0,0,0,-1,-1,135505.5707,unknown,2,2026-03-30T14:42:54.938-05:00,2026-03-30T10:54:16.334-05:00,3835,1.354185,0,0,2585.694,4,4,2026-03-30T14:42:54.938-05:00,796592575,0,0.9300003,99.59001,1,0.9,2026-03-30T14:37:50.703-05:00,72,1.2,2026-03-30T12:48:13.834-05:00,0.123680593
2026-03-30T14:42:55.299-05:00,1774899775,30.28882013,-97.73755775,174.4397,0.001087011,0.4579535,244.2502968,180,3,7.227611971,-9999,135505.9301,0.82409668,0.259063721,-0.499755859,135505.9075,-3.091767182,1.020221276,-0.258062798,0.006442198,0.011197496,0.005213707,0.001741171,-0.001484931,0.009438753,XArbitraryZVertical,0.481267323,0.124319299,-0.866732227,-0.041250351,0.824003339,0.255207986,-0.505852938,0,0,0,-1,-1,135505.5707,unknown,2,2026-03-30T14:42:54.938-05:00,2026-03-30T10:54:16.334-05:00,3835,1.354185,0,0,2585.694,4,4,2026-03-30T14:42:54.938-05:00,796592575,0,0.9300003,99.59001,1,0.9,2026-03-30T14:37:50.703-05:00,72,1.2,2026-03-30T12:48:13.834-05:00,0.123680593
2026-03-30T14:42:53.299-05:00,1774899773,30.28882039,-97.73755755,174.5016,0.006974988,0.4335423,244.2502968,180,3,7.728982799,-9999,135503.9285,0.952301025,0.083602905,-0.313293457,135503.9172,3.063880659,1.318519581,-0.15675837,-0.101854429,-0.325397521,-0.034412082,-0.00284481,-0.03950958,-0.058932349,XArbitraryZVertical,0.612594724,0.038122874,-0.785561204,-0.078535976,0.956473291,0.156117156,-0.246548697,0,0,0,-1,-1,135502.9975,unknown,2,2026-03-30T14:42:52.364-05:00,2026-03-30T10:54:16.334-05:00,3826,1.355206,0,0,2579.042,4,4,2026-03-30T14:42:52.364-05:00,796592572.4,0,0.9600029,99.58976,1,0.9,2026-03-30T14:37:50.703-05:00,72,1.2,2026-03-30T12:48:13.834-05:00,0.123680593
2026-03-30T14:42:53.334-05:00,1774899773,30.28882039,-97.73755755,174.5016,0.006974988,0.4335423,244.2502968,180,3,7.728982799,-9999,135503.9624,1.013076782,0.090911865,-0.373748779,135503.9474,3.071380378,1.311092825,-0.161152172,-0.411170721,-0.259040058,-0.110010907,0.028142393,-0.094629213,-0.078030497,XArbitraryZVertical,0.609479759,0.042438839,-0.787933968,-0.076768383,0.95394367,0.160455555,-0.253466725,0,0,0,-1,-1,135502.9975,unknown,2,2026-03-30T14:42:52.364-05:00,2026-03-30T10:54:16.334-05:00,3826,1.355206,0,0,2579.042,4,4,2026-03-30T14:42:52.364-05:00,796592572.4,0,0.9600029,99.58976,1,0.9,2026-03-30T14:37:50.703-05:00,72,1.2,2026-03-30T12:48:13.834-05:00,0.123680593
2026-03-30T14:42:53.365-05:00,1774899773,30.28882039,-97.73755755,174.5016,0.006974988,0.4335423,244.2502968,180,3,7.728982799,-9999,135503.9964,1.037139893,0.089233398,-0.405029297,135503.9775,3.084053246,1.306069151,-0.168133874,-0.485511184,-0.219405845,-0.135437727,0.053862929,-0.072250143,-0.143670261,XArbitraryZVertical,0.607121496,0.049247096,-0.78964363,-0.073764081,0.951553881,0.167342827,-0.257956415,0,0,0,-1,-1,135502.9975,unknown,2,2026-03-30T14:42:52.364-05:00,2026-03-30T10:54:16.334-05:00,3826,1.355206,0,0,2579.042,4,4,2026-03-30T14:42:52.364-05:00,796592572.4,0,0.9600029,99.58976,1,0.9,2026-03-30T14:37:50.703-05:00,72,1.2,2026-03-30T12:48:13.834-05:00,0.123680593
2026-03-30T14:42:53.399-05:00,1774899773,30.28882039,-97.73755755,174.5016,0.006974988,0.4335423,244.2502968,180,3,7.728982799,-9999,135504.0303,1.04309082,0.043609619,-0.334014893,135504.0077,3.099316433,1.301294068,-0.17644429,-0.650484562,-0.29026112,-0.124261454,0.096884131,-0.09746632,-0.133924097,XArbitraryZVertical,0.604692801,0.057338336,-0.791292431,-0.070107833,0.948937953,0.17553018,-0.262117863,0,0,0,-1,-1,135502.9975,unknown,2,2026-03-30T14:42:52.364-05:00,2026-03-30T10:54:16.334-05:00,3826,1.355206,0,0,2579.042,4,4,2026-03-30T14:42:52.364-05:00,796592572.4,0,0.9600029,99.58976,1,0.9,2026-03-30T14:37:50.703-05:00,72,1.2,2026-03-30T12:48:13.834-05:00,0.123680593
2026-03-30T14:42:53.435-05:00,1774899773,30.28882039,-97.73755755,174.5016,0.006974988,0.4335423,244.2502968,180,3,7.728982799,-9999,135504.0642,0.868255615,0.039825439,-0.190124512,135504.0378,3.117817481,1.292129379,-0.185159892,-0.624515891,-0.537504733,-0.101266704,0.08583349,-0.138907254,-0.05848515,XArbitraryZVertical,0.600305751,0.066684453,-0.794322066,-0.065105015,0.944989204,0.184103698,-0.270372391,0,0,0,-1,-1,135502.9975,unknown,2,2026-03-30T14:42:52.364-05:00,2026-03-30T10:54:16.334-05:00,3826,1.355206,0,0,2579.042,4,4,2026-03-30T14:42:52.364-05:00,796592572.4,0,0.9600029,99.58976,1,0.9,2026-03-30T14:37:50.703-05:00,72,1.2,2026-03-30T12:48:13.834-05:00,0.123680593
2026-03-30T14:42:53.470-05:00,1774899773,30.28882039,-97.73755755,174.5016,0.006974988,0.4335423,244.2502968,180,3,7.728982799,-9999,135504.0981,0.862792969,0.150772095,-0.152938843,135504.068,3.137392087,1.276733448,-0.195009464,-0.868091524,-0.721947491,-0.222614467,-0.065459549,-0.152165174,0.088960469,XArbitraryZVertical,0.593217148,0.076933364,-0.799132024,-0.059688083,0.938933611,0.193775818,-0.284349352,0,0,0,-1,-1,135502.9975,unknown,2,2026-03-30T14:42:52.364-05:00,2026-03-30T10:54:16.334-05:00,3826,1.355206,0,0,2579.042,4,4,2026-03-30T14:42:52.364-05:00,796592572.4,0,0.9600029,99.58976,1,0.9,2026-03-30T14:37:50.703-05:00,72,1.2,2026-03-30T12:48:13.834-05:00,0.123680593
2026-03-30T14:42:53.500-05:00,1774899773,30.28882039,-97.73755755,174.5016,0.006974988,0.4335423,244.2502968,180,3,7.728982799,-9999,135504.1321,0.821060181,0.200317383,-0.235534668,135504.0981,-3.121735417,1.254962846,-0.212152772,-0.839918733,-1.091942549,-0.361513942,-0.070355237,-0.090005279,0.159479797,XArbitraryZVertical,0.58292805,0.091500901,-0.805536134,-0.054166486,0.929226637,0.210564896,-0.303644955,0,0,0,-1,-1,135502.9975,unknown,2,2026-03-30T14:42:52.364-05:00,2026-03-30T10:54:16.334-05:00,3826,1.355206,0,0,2579.042,4,4,2026-03-30T14:42:52.364-05:00,796592572.4,0,0.9600029,99.58976,1,0.9,2026-03-30T14:37:50.703-05:00,72,1.2,2026-03-30T12:48:13.834-05:00,0.123680593
2026-03-30T14:42:53.536-05:00,1774899773,30.28882039,-97.73755755,174.5016,0.006974988,0.4335423,244.2502968,180,3,7.728982799,-9999,135504.166,0.878219604,0.258117676,-0.355102539,135504.1585,-3.088445014,1.177828691,-0.247735387,-0.489559263,-1.665832758,-0.360296398,0.001368105,-0.010300115,0.047235489,XArbitraryZVertical,0.548278332,0.117347835,-0.826705228,-0.046677913,0.895574033,0.245209113,-0.371240705,0,0,0,-1,-1,135502.9975,unknown,2,2026-03-30T14:42:52.364-05:00,2026-03-30T10:54:16.334-05:00,3826,1.355206,0,0,2579.042,4,4,2026-03-30T14:42:52.364-05:00,796592572.4,0,0.9600029,99.58976,1,0.9,2026-03-30T14:37:50.703-05:00,72,1.2,2026-03-30T12:48:13.834-05:00,0.123680593
2026-03-30T14:42:53.570-05:00,1774899773,30.28882039,-97.73755755,174.5016,0.006974988,0.4335423,244.2502968,180,3,7.728982799,-9999,135504.1999,0.830108643,0.36114502,-0.412994385,135504.1886,-3.081363459,1.128654593,-0.261941486,-0.271490067,-1.693168759,-0.30125922,-0.039434254,0.043518573,0.051800162,XArbitraryZVertical,0.526703899,0.126263769,-0.839435357,-0.044594083,0.873006523,0.258956313,-0.413280934,0,0,0,-1,-1,135502.9975,unknown,2,2026-03-30T14:42:52.364-05:00,2026-03-30T10:54:16.334-05:00,3826,1.355206,0,0,2579.042,4,4,2026-03-30T14:42:52.364-05:00,796592572.4,0,0.9600029,99.58976,1,0.9,2026-03-30T14:37:50.703-05:00,72,1.2,2026-03-30T12:48:13.834-05:00,0.123680593
2026-03-30T14:42:53.605-05:00,1774899773,30.28882039,-97.73755755,174.5016,0.006974988,0.4335423,244.2502968,180,3,7.728982799,-9999,135504.2338,0.763824463,0.278991699,-0.339447021,135504.2188,-3.081683849,1.076210027,-0.270028707,-0.061764311,-1.749354124,-0.186904863,-0.014149129,0.103663206,0.050377846,XArbitraryZVertical,0.504156077,0.130740499,-0.852551315,-0.043471791,0.848270833,0.266759098,-0.457467139,0,0,0,-1,-1,135502.9975,unknown,2,2026-03-30T14:42:52.364-05:00,2026-03-30T10:54:16.334-05:00,3826,1.355206,0,0,2579.042,4,4,2026-03-30T14:42:52.364-05:00,796592572.4,0,0.9600029,99.58976,1,0.9,2026-03-30T14:37:50.703-05:00,72,1.2,2026-03-30T12:48:13.834-05:00,0.123680593
2026-03-30T14:42:53.637-05:00,1774899773,30.28882039,-97.73755755,174.5016,0.006974988,0.4335423,244.2502968,180,3,7.728982799,-9999,135504.2678,0.833831787,0.326858521,-0.551925659,135504.2489,-3.077629986,1.029295907,-0.279117061,-0.440412283,-1.406686068,-0.218138501,-0.080791175,-0.004938215,0.102545857,XArbitraryZVertical,0.483321609,0.136611501,-0.863751686,-0.040873571,0.823772132,0.275506973,-0.495475054,0,0,0,-1,-1,135502.9975,unknown,2,2026-03-30T14:42:52.364-05:00,2026-03-30T10:54:16.334-05:00,3826,1.355206,0,0,2579.042,4,4,2026-03-30T14:42:52.364-05:00,796592572.4,0,0.9600029,99.58976,1,0.9,2026-03-30T14:37:50.703-05:00,72,1.2,2026-03-30T12:48:13.834-05:00,0.123680593
2026-03-30T14:42:53.671-05:00,1774899773,30.28882039,-97.73755755,174.5016,0.006974988,0.4335423,244.2502968,180,3,7.728982799,-9999,135504.3017,0.743865967,0.361465454,-0.585723877,135504.2791,-3.067294863,0.996482269,-0.291298525,-0.481051117,-0.888544619,-0.105118155,0.013782144,0.050038159,-0.070615768,XArbitraryZVertical,0.46776015,0.144962792,-0.871099868,-0.037029821,0.804195702,0.287196279,-0.52037245,0,0,0,-1,-1,135502.9975,unknown,2,2026-03-30T14:42:52.364-05:00,2026-03-30T10:54:16.334-05:00,3826,1.355206,0,0,2579.042,4,4,2026-03-30T14:42:52.364-05:00,796592572.4,0,0.9600029,99.58976,1,0.9,2026-03-30T14:37:50.703-05:00,72,1.2,2026-03-30T12:48:13.834-05:00,0.123680593
2026-03-30T14:42:53.706-05:00,1774899773,30.28882039,-97.73755755,174.5016,0.006974988,0.4335423,244.2502968,180,3,7.728982799,-9999,135504.3356,0.699813843,0.279006958,-0.523117065,135504.3092,-3.057885743,0.981308584,-0.297986429,-0.275608957,-0.313763231,0.039442793,-0.049842238,0.065473795,-0.055708051,XArbitraryZVertical,0.460096287,0.150312655,-0.874415658,-0.033389199,0.794593155,0.29359597,-0.531435013,0,0,0,-1,-1,135502.9975,unknown,2,2026-03-30T14:42:52.364-05:00,2026-03-30T10:54:16.334-05:00,3826,1.355206,0,0,2579.042,4,4,2026-03-30T14:42:52.364-05:00,796592572.4,0,0.9600029,99.58976,1,0.9,2026-03-30T14:37:50.703-05:00,72,1.2,2026-03-30T12:48:13.834-05:00,0.123680593
2026-03-30T14:42:53.741-05:00,1774899773,30.28882039,-97.73755755,174.5016,0.006974988,0.4335423,244.2502968,180,3,7.728982799,-9999,135504.3695,0.7003479,0.281021118,-0.400650024,135504.3394,-3.048676012,0.983514521,-0.301533637,-0.347948313,0.285732836,0.093769744,-0.092239678,-0.018359572,0.002885818,XArbitraryZVertical,0.460166863,0.153935693,-0.873858182,-0.030368406,0.794891596,0.296985,-0.529100537,0,0,0,-1,-1,135502.9975,unknown,2,2026-03-30T14:42:52.364-05:00,2026-03-30T10:54:16.334-05:00,3826,1.355206,0,0,2579.042,4,4,2026-03-30T14:42:52.364-05:00,796592572.4,0,0.9600029,99.58976,1,0.9,2026-03-30T14:37:50.703-05:00,72,1.2,2026-03-30T12:48:13.834-05:00,0.123680593
2026-03-30T14:42:53.772-05:00,1774899773,30.28882039,-97.73755755,174.5016,0.006974988,0.4335423,244.2502968,180,3,7.728982799,-9999,135504.4035,0.693664551,0.237213135,-0.225097656,135504.3695,-3.037454076,1.002437473,-0.303538757,-0.336928725,0.723901272,0.166725233,-0.100354135,-0.016382664,0.090898573,XArbitraryZVertical,0.467426979,0.157131552,-0.86952249,-0.027426975,0.804257274,0.298899055,-0.513643384,0,0,0,-1,-1,135502.9975,unknown,2,2026-03-30T14:42:52.364-05:00,2026-03-30T10:54:16.334-05:00,3826,1.355206,0,0,2579.042,4,4,2026-03-30T14:42:52.364-05:00,796592572.4,0,0.9600029,99.58976,1,0.9,2026-03-30T14:37:50.703-05:00,72,1.2,2026-03-30T12:48:13.834-05:00,0.123680593
2026-03-30T14:42:53.807-05:00,1774899773,30.28882039,-97.73755755,174.5016,0.006974988,0.4335423,244.2502968,180,3,7.728982799,-9999,135504.4374,1.716705322,1.013671875,-0.993515015,135504.4299,-3.011711242,1.036830577,-0.321654977,0.270354122,-1.506943345,-0.619016528,0.239336073,0.486963391,0.16662547,XArbitraryZVertical,0.479052324,0.170541824,-0.860738175,-0.023539574,0.816648304,0.316137105,-0.482848704,0,0,0,-1,-1,135502.9975,unknown,2,2026-03-30T14:42:52.364-05:00,2026-03-30T10:54:16.334-05:00,3826,1.355206,0,0,2579.042,4,4,2026-03-30T14:42:52.364-05:00,796592572.4,0,0.9600029,99.58976,1,0.9,2026-03-30T14:37:50.703-05:00,72,1.2,2026-03-30T12:48:13.834-05:00,0.123680593
2026-03-30T14:42:53.842-05:00,1774899773,30.28882039,-97.73755755,174.5016,0.006974988,0.4335423,244.2502968,180,3,7.728982799,-9999,135504.4713,0.28352356,0.614959717,-0.987319946,135504.46,-2.999428856,1.020958051,-0.326715347,-0.549826741,0.650387347,0.030273804,0.097613394,-0.278987527,-0.373394132,XArbitraryZVertical,0.470795175,0.175778942,-0.864364171,-0.018118097,0.807507396,0.320933878,-0.49490732,0,0,0,-1,-1,135502.9975,unknown,2,2026-03-30T14:42:52.364-05:00,2026-03-30T10:54:16.334-05:00,3826,1.355206,0,0,2579.042,4,4,2026-03-30T14:42:52.364-05:00,796592572.4,0,0.9600029,99.58976,1,0.9,2026-03-30T14:37:50.703-05:00,72,1.2,2026-03-30T12:48:13.834-05:00,0.123680593
2026-03-30T14:42:53.877-05:00,1774899773,30.28882039,-97.73755755,174.5016,0.006974988,0.4335423,244.2502968,180,3,7.728982799,-9999,135504.5052,0.783981323,0.159851074,-0.206497192,135504.4902,-3.011897586,1.02503898,-0.321780077,0.589546502,-0.131546006,-0.163523346,0.182635367,0.438855857,-0.007667661,XArbitraryZVertical,0.473976782,0.170686859,-0.863538822,-0.022644902,0.810864329,0.316255778,-0.492424011,0,0,0,-1,-1,135502.9975,unknown,2,2026-03-30T14:42:52.364-05:00,2026-03-30T10:54:16.334-05:00,3826,1.355206,0,0,2579.042,4,4,2026-03-30T14:42:52.364-05:00,796592572.4,0,0.9600029,99.58976,1,0.9,2026-03-30T14:37:50.703-05:00,72,1.2,2026-03-30T12:48:13.834-05:00,0.123680593
2026-03-30T14:42:53.908-05:00,1774899773,30.28882039,-97.73755755,174.5016,0.006974988,0.4335423,244.2502968,180,3,7.728982799,-9999,135504.5392,0.854980469,0.42539978,-0.533828735,135504.5203,-3.018487641,1.025083089,-0.316813,0.261411399,0.121796258,0.285394192,-0.03720963,-0.195450962,0.149889886,XArbitraryZVertical,0.474880373,0.167002683,-0.863718459,-0.024272593,0.812218726,0.311539769,-0.493197471,0,0,0,-1,-1,135502.9975,unknown,2,2026-03-30T14:42:52.364-05:00,2026-03-30T10:54:16.334-05:00,3826,1.355206,0,0,2579.042,4,4,2026-03-30T14:42:52.364-05:00,796592572.4,0,0.9600029,99.58976,1,0.9,2026-03-30T14:37:50.703-05:00,72,1.2,2026-03-30T12:48:13.834-05:00,0.123680593
2026-03-30T14:42:53.942-05:00,1774899773,30.28882039,-97.73755755,174.5016,0.006974988,0.4335423,244.2502968,180,3,7.728982799,-9999,135504.5731,0.759872437,0.1537323,-0.322570801,135504.5505,-3.026750498,1.023230423,-0.308071961,0.288101912,0.064945787,-0.049225736,-0.083403587,0.127579361,-0.010506958,XArbitraryZVertical,0.475314499,0.161325874,-0.864521579,-0.025543651,0.81359756,0.303221941,-0.496100187,0,0,0,-1,-1,135502.9975,unknown,2,2026-03-30T14:42:52.364-05:00,2026-03-30T10:54:16.334-05:00,3826,1.355206,0,0,2579.042,4,4,2026-03-30T14:42:52.364-05:00,796592572.4,0,0.9600029,99.58976,1,0.9,2026-03-30T14:37:50.703-05:00,72,1.2,2026-03-30T12:48:13.834-05:00,0.123680593
2026-03-30T14:42:53.978-05:00,1774899773,30.28882039,-97.73755755,174.5016,0.006974988,0.4335423,244.2502968,180,3,7.728982799,-9999,135504.607,0.829971313,0.311065674,-0.559112549,135504.5806,-3.028190146,1.024499034,-0.30906869,0.01213759,-0.052287765,-0.014543393,-0.018466055,-0.141482443,0.155234396,XArbitraryZVertical,0.475916945,0.161393477,-0.864148344,-0.026512793,0.813967705,0.304171592,-0.494910419,0,0,0,-1,-1,135502.9975,unknown,2,2026-03-30T14:42:52.364-05:00,2026-03-30T10:54:16.334-05:00,3826,1.355206,0,0,2579.042,4,4,2026-03-30T14:42:52.364-05:00,796592572.4,0,0.9600029,99.58976,1,0.9,2026-03-30T14:37:50.703-05:00,72,1.2,2026-03-30T12:48:13.834-05:00,0.123680593
2026-03-30T14:42:54.012-05:00,1774899773,30.28882039,-97.73755755,174.5016,0.006974988,0.4335423,244.2502968,180,3,7.728982799,-9999,135504.6409,0.890213013,0.327575684,-0.555282593,135504.6108,-3.031110644,1.021355387,-0.308357655,0.075171702,0.008778038,-0.031030044,0.024199843,0.015155077,-0.062723219,XArbitraryZVertical,0.474836888,0.160437277,-0.864894226,-0.027347934,0.812592089,0.303494155,-0.497579604,0,0,0,-1,-1,135502.9975,unknown,2,2026-03-30T14:42:52.364-05:00,2026-03-30T10:54:16.334-05:00,3826,1.355206,0,0,2579.042,4,4,2026-03-30T14:42:52.364-05:00,796592572.4,0,0.9600029,99.58976,1,0.9,2026-03-30T14:37:50.703-05:00,72,1.2,2026-03-30T12:48:13.834-05:00,0.123680593
2026-03-30T14:42:54.043-05:00,1774899773,30.28882039,-97.73755755,174.5016,0.006974988,0.4335423,244.2502968,180,3,7.728982799,-9999,135504.6749,0.697113037,0.314849854,-0.515853882,135504.6409,-3.035845631,1.021682569,-0.30422542,0.352137715,0.049287215,0.097115926,0.052759469,0.021017581,-0.051733971,XArbitraryZVertical,0.475604896,0.157537231,-0.864971028,-0.028410109,0.81381762,0.299554259,-0.497963995,0,0,0,-1,-1,135502.9975,unknown,2,2026-03-30T14:42:52.364-05:00,2026-03-30T10:54:16.334-05:00,3826,1.355206,0,0,2579.042,4,4,2026-03-30T14:42:52.364-05:00,796592572.4,0,0.9600029,99.58976,1,0.9,2026-03-30T14:37:50.703-05:00,72,1.2,2026-03-30T12:48:13.834-05:00,0.123680593
2026-03-30T14:42:54.078-05:00,1774899774,30.28882026,-97.73755755,174.4698,0.01274284,0.4718571,244.2502968,180,3,7.158025154,-9999,135504.7088,0.865310669,0.255493164,-0.452911377,135504.7013,-3.046104035,1.024716073,-0.292715341,-0.019307729,0.082902968,-0.025421971,-0.08170563,-0.104516953,0.029385686,XArbitraryZVertical,0.478373577,0.15011109,-0.864702107,-0.03025917,0.818216801,0.288553119,-0.497250766,0,0,0,-1,-1,135502.9975,unknown,2,2026-03-30T14:42:52.364-05:00,2026-03-30T10:54:16.334-05:00,3826,1.355206,0,0,2579.042,4,4,2026-03-30T14:42:52.364-05:00,796592572.4,0,0.9600029,99.58976,1,0.9,2026-03-30T14:37:50.703-05:00,72,1.2,2026-03-30T12:48:13.834-05:00,0.123680593
2026-03-30T14:42:54.140-05:00,1774899774,30.28882026,-97.73755755,174.4698,0.01274284,0.4718571,244.2502968,180,3,7.158025154,-9999,135504.7427,0.765640259,0.251831055,-0.464859009,135504.7314,-3.047185113,1.0243702,-0.292405145,0.064228378,0.026880303,0.00030608,0.038461328,-0.008989811,0.047369599,XArbitraryZVertical,0.478322467,0.149724719,-0.864784567,-0.030624591,0.818121254,0.288256109,-0.49758026,0,0,0,-1,-1,135502.9975,unknown,2,2026-03-30T14:42:52.364-05:00,2026-03-30T10:54:16.334-05:00,3826,1.355206,0,0,2579.042,4,4,2026-03-30T14:42:52.364-05:00,796592572.4,0,0.9600029,99.58976,1,0.9,2026-03-30T14:37:50.703-05:00,72,1.2,2026-03-30T12:48:13.834-05:00,0.123680593
2026-03-30T14:42:54.155-05:00,1774899774,30.28882026,-97.73755755,174.4698,0.01274284,0.4718571,244.2502968,180,3,7.158025154,-9999,135504.7766,0.842071533,0.269241333,-0.467697144,135504.7616,-3.04939687,1.024328862,-0.290538089,0.140411332,-0.015565046,0.040640019,0.002226412,-0.011382431,0.033110082,XArbitraryZVertical,0.478573348,0.148395113,-0.864857236,-0.031120233,0.818559051,0.286467791,-0.497892886,0,0,0,-1,-1,135502.9975,unknown,2,2026-03-30T14:42:52.364-05:00,2026-03-30T10:54:16.334-05:00,3826,1.355206,0,0,2579.042,4,4,2026-03-30T14:42:52.364-05:00,796592572.4,0,0.9600029,99.58976,1,0.9,2026-03-30T14:37:50.703-05:00,72,1.2,2026-03-30T12:48:13.834-05:00,0.123680593
2026-03-30T14:42:54.179-05:00,1774899774,30.28882026,-97.73755755,174.4698,0.01274284,0.4718571,244.2502968,180,3,7.158025154,-9999,135504.8106,0.833694458,0.263427734,-0.479171753,135504.7917,-3.052270265,1.023099838,-0.287395901,0.116278924,-0.010090484,0.030201027,-0.005203903,-0.027276188,0.028356403,XArbitraryZVertical,0.478425694,0.146377854,-0.865268687,-0.031502854,0.818710923,0.283455908,-0.499364763,0,0,0,-1,-1,135502.9975,unknown,2,2026-03-30T14:42:52.364-05:00,2026-03-30T10:54:16.334-05:00,3826,1.355206,0,0,2579.042,4,4,2026-03-30T14:42:52.364-05:00,796592572.4,0,0.9600029,99.58976,1,0.9,2026-03-30T14:37:50.703-05:00,72,1.2,2026-03-30T12:48:13.834-05:00,0.123680593
2026-03-30T14:42:54.213-05:00,1774899774,30.28882026,-97.73755755,174.4698,0.01274284,0.4718571,244.2502968,180,3,7.158025154,-9999,135504.8445,0.824310303,0.279174805,-0.494888306,135504.8219,-3.053924183,1.022106304,-0.285765666,0.019171,-0.005808949,0.003285937,0.012004614,-0.020829558,0.017446995,XArbitraryZVertical,0.478204384,0.145297637,-0.865564208,-0.03174718,0.818607628,0.281892151,-0.500418305,0,0,0,-1,-1,135502.9975,unknown,2,2026-03-30T14:42:52.364-05:00,2026-03-30T10:54:16.334-05:00,3826,1.355206,0,0,2579.042,4,4,2026-03-30T14:42:52.364-05:00,796592572.4,0,0.9600029,99.58976,1,0.9,2026-03-30T14:37:50.703-05:00,72,1.2,2026-03-30T12:48:13.834-05:00,0.123680593
2026-03-30T14:42:54.249-05:00,1774899774,30.28882026,-97.73755755,174.4698,0.01274284,0.4718571,244.2502968,180,3,7.158025154,-9999,135504.8784,0.809967041,0.29510498,-0.499710083,135504.852,-3.054144972,1.021927713,-0.285530793,0.014815599,-0.000782638,0.009371577,0.006574869,0.000101924,0.004673004,XArbitraryZVertical,0.478155745,0.14514675,-0.865615393,-0.031772357,0.818574667,0.281666785,-0.500599027,0,0,0,-1,-1,135502.9975,unknown,2,2026-03-30T14:42:52.364-05:00,2026-03-30T10:54:16.334-05:00,3826,1.355206,0,0,2579.042,4,4,2026-03-30T14:42:52.364-05:00,796592572.4,0,0.9600029,99.58976,1,0.9,2026-03-30T14:37:50.703-05:00,72,1.2,2026-03-30T12:48:13.834-05:00,0.123680593
2026-03-30T14:42:54.284-05:00,1774899774,30.28882026,-97.73755755,174.4698,0.01274284,0.4718571,244.2502968,180,3,7.158025154,-9999,135504.9123,0.818954468,0.281967163,-0.505233765,135504.8822,-3.055006513,1.021791897,-0.284668984,0.05102713,0.007304822,0.013240821,-0.008395433,0.014616102,0.001019716,XArbitraryZVertical,0.478205453,0.14457252,-0.865678413,-0.031924722,0.818713427,0.280839771,-0.50083667,0,0,0,-1,-1,135502.9975,unknown,2,2026-03-30T14:42:52.364-05:00,2026-03-30T10:54:16.334-05:00,3826,1.355206,0,0,2579.042,4,4,2026-03-30T14:42:52.364-05:00,796592572.4,0,0.9600029,99.58976,1,0.9,2026-03-30T14:37:50.703-05:00,72,1.2,2026-03-30T12:48:13.834-05:00,0.123680593
2026-03-30T14:42:52.279-05:00,1774899772,30.28882039,-97.73755783,174.5159,0.02088438,0.3864482,244.2502968,39.30213792,3,8.231665404,-9999,135502.9108,0.790725708,0.321456909,0.129013062,135502.8919,-2.554764952,1.789639565,-0.277097619,2.743338346,-0.975839078,1.336450577,-0.083657384,-0.036947101,0.008084685,XArbitraryZVertical,0.714609947,0.306173347,-0.624340519,0.076088861,0.93891263,0.273565143,0.208818987,0,0,0,-1,-1,135500.4242,unknown,2,2026-03-30T14:42:49.791-05:00,2026-03-30T10:54:16.334-05:00,3826,1.355206,0,0,2579.042,4,4,2026-03-30T14:42:49.791-05:00,796592569.9,0,1.010002,99.5886,1,0.9,2026-03-30T14:37:50.703-05:00,72,1.2,2026-03-30T12:48:13.834-05:00,0.123680593
2026-03-30T14:42:52.314-05:00,1774899772,30.28882039,-97.73755783,174.5159,0.02088438,0.3864482,244.2502968,39.30213792,3,8.231665404,-9999,135502.9447,0.73840332,0.246047974,0.079177856,135502.9221,-2.644427322,1.736399261,-0.256741822,2.46528554,-0.977481008,1.056221604,-0.170802116,0.040899813,-0.04993163,XArbitraryZVertical,0.713269058,0.266400335,-0.645222136,0.062980627,0.953990102,0.253930509,0.159443781,0,0,0,-1,-1,135500.4242,unknown,2,2026-03-30T14:42:49.791-05:00,2026-03-30T10:54:16.334-05:00,3826,1.355206,0,0,2579.042,4,4,2026-03-30T14:42:49.791-05:00,796592569.9,0,1.010002,99.5886,1,0.9,2026-03-30T14:37:50.703-05:00,72,1.2,2026-03-30T12:48:13.834-05:00,0.123680593
2026-03-30T14:42:52.349-05:00,1774899772,30.28882039,-97.73755783,174.5159,0.02088438,0.3864482,244.2502968,39.30213792,3,8.231665404,-9999,135502.9786,0.733444214,0.363937378,0.032394409,135502.9522,-2.718325792,1.689010934,-0.237432272,2.213294983,-0.967657804,0.919065714,-0.224606872,0.029227123,-0.040808767,XArbitraryZVertical,0.709295401,0.23284198,-0.66331487,0.051944071,0.96516192,0.235207722,0.114630707,0,0,0,-1,-1,135500.4242,unknown,2,2026-03-30T14:42:49.791-05:00,2026-03-30T10:54:16.334-05:00,3826,1.355206,0,0,2579.042,4,4,2026-03-30T14:42:49.791-05:00,796592569.9,0,1.010002,99.5886,1,0.9,2026-03-30T14:37:50.703-05:00,72,1.2,2026-03-30T12:48:13.834-05:00,0.123680593
2026-03-30T14:42:52.384-05:00,1774899772,30.28882039,-97.73755783,174.5159,0.02088438,0.3864482,244.2502968,39.30213792,3,8.231665404,-9999,135503.0126,0.774230957,0.163299561,0.05291748,135502.9824,-2.793169974,1.643920771,-0.218724017,2.416211128,-0.872348011,0.786478996,-0.236002266,0.153560162,-0.040175565,XArbitraryZVertical,0.704205804,0.199382834,-0.680333501,0.038560763,0.973566294,0.216984212,0.071318656,0,0,0,-1,-1,135500.4242,unknown,2,2026-03-30T14:42:49.791-05:00,2026-03-30T10:54:16.334-05:00,3826,1.355206,0,0,2579.042,4,4,2026-03-30T14:42:49.791-05:00,796592569.9,0,1.010002,99.5886,1,0.9,2026-03-30T14:37:50.703-05:00,72,1.2,2026-03-30T12:48:13.834-05:00,0.123680593
2026-03-30T14:42:52.414-05:00,1774899772,30.28882039,-97.73755783,174.5159,0.02088438,0.3864482,244.2502968,39.30213792,3,8.231665404,-9999,135503.0465,0.776977539,0.176437378,-0.116348267,135503.0126,-2.862344393,1.605024971,-0.200910899,1.94761157,-0.735017359,0.625851154,-0.208177805,-0.013511598,0.036092166,XArbitraryZVertical,0.698817488,0.168585045,-0.694707032,0.024807939,0.979311347,0.199561983,0.033533596,0,0,0,-1,-1,135500.4242,unknown,2,2026-03-30T14:42:49.791-05:00,2026-03-30T10:54:16.334-05:00,3826,1.355206,0,0,2579.042,4,4,2026-03-30T14:42:49.791-05:00,796592569.9,0,1.010002,99.5886,1,0.9,2026-03-30T14:37:50.703-05:00,72,1.2,2026-03-30T12:48:13.834-05:00,0.123680593
2026-03-30T14:42:52.450-05:00,1774899772,30.28882039,-97.73755783,174.5159,0.02088438,0.3864482,244.2502968,39.30213792,3,8.231665404,-9999,135503.0804,0.874603271,0.378799438,-0.38508606,135503.0729,-2.958387267,1.565042339,-0.171039882,1.359371424,-0.113996908,0.256570786,-0.215860784,0.115666226,-0.1854617,XArbitraryZVertical,0.694006737,0.124577889,-0.709093373,0.004659582,0.985392094,0.170207143,-0.005669997,0,0,0,-1,-1,135502.9975,unknown,2,2026-03-30T14:42:52.364-05:00,2026-03-30T10:54:16.334-05:00,3826,1.355206,0,0,2579.042,4,4,2026-03-30T14:42:52.364-05:00,796592572.4,0,0.9600029,99.58976,1,0.9,2026-03-30T14:37:50.703-05:00,72,1.2,2026-03-30T12:48:13.834-05:00,0.123680593
2026-03-30T14:42:52.485-05:00,1774899772,30.28882039,-97.73755783,174.5159,0.02088438,0.3864482,244.2502968,39.30213792,3,8.231665404,-9999,135503.1143,1.734436035,0.995956421,-0.853271484,135503.103,-2.973518935,1.534789885,-0.191011598,-0.723152041,-1.62807405,-1.112138152,0.686212599,0.468717098,-0.392695725,XArbitraryZVertical,0.682898949,0.126400372,-0.719470549,-0.005835052,0.981176257,0.189852193,-0.035343941,0,0,0,-1,-1,135502.9975,unknown,2,2026-03-30T14:42:52.364-05:00,2026-03-30T10:54:16.334-05:00,3826,1.355206,0,0,2579.042,4,4,2026-03-30T14:42:52.364-05:00,796592572.4,0,0.9600029,99.58976,1,0.9,2026-03-30T14:37:50.703-05:00,72,1.2,2026-03-30T12:48:13.834-05:00,0.123680593
2026-03-30T14:42:52.520-05:00,1774899772,30.28882039,-97.73755783,174.5159,0.02088438,0.3864482,244.2502968,39.30213792,3,8.231665404,-9999,135503.1483,0.413528442,0.629013062,-0.140548706,135503.1332,-2.933188719,1.514109088,-0.210817411,-1.341436625,0.151532978,-0.350453287,-0.169328451,0.475997627,-0.661714911,XArbitraryZVertical,0.671312564,0.147099236,-0.726422929,0.00331681,0.976289451,0.209259287,-0.05540251,0,0,0,-1,-1,135502.9975,unknown,2,2026-03-30T14:42:52.364-05:00,2026-03-30T10:54:16.334-05:00,3826,1.355206,0,0,2579.042,4,4,2026-03-30T14:42:52.364-05:00,796592572.4,0,0.9600029,99.58976,1,0.9,2026-03-30T14:37:50.703-05:00,72,1.2,2026-03-30T12:48:13.834-05:00,0.123680593
2026-03-30T14:42:52.550-05:00,1774899772,30.28882039,-97.73755783,174.5159,0.02088438,0.3864482,244.2502968,39.30213792,3,8.231665404,-9999,135503.1822,1.045578003,0.618804932,-0.237213135,135503.1633,-2.933386098,1.517799307,-0.22483656,1.392804742,0.02276203,-0.23265557,-0.090267897,0.570723534,-0.04095149,XArbitraryZVertical,0.671619413,0.152012821,-0.725131733,-0.001852536,0.973461866,0.222947031,-0.051638935,0,0,0,-1,-1,135502.9975,unknown,2,2026-03-30T14:42:52.364-05:00,2026-03-30T10:54:16.334-05:00,3826,1.355206,0,0,2579.042,4,4,2026-03-30T14:42:52.364-05:00,796592572.4,0,0.9600029,99.58976,1,0.9,2026-03-30T14:37:50.703-05:00,72,1.2,2026-03-30T12:48:13.834-05:00,0.123680593
2026-03-30T14:42:52.585-05:00,1774899772,30.28882039,-97.73755783,174.5159,0.02088438,0.3864482,244.2502968,39.30213792,3,8.231665404,-9999,135503.2161,0.86050415,0.24710083,-0.003555298,135503.1935,-3.001384033,1.511297968,-0.213396078,2.660140038,0.288571358,0.474798173,-0.012773633,0.221599892,-0.13858664,XArbitraryZVertical,0.674757128,0.125082297,-0.727025581,-0.02215916,0.975587964,0.211780161,-0.058114473,0,0,0,-1,-1,135502.9975,unknown,2,2026-03-30T14:42:52.364-05:00,2026-03-30T10:54:16.334-05:00,3826,1.355206,0,0,2579.042,4,4,2026-03-30T14:42:52.364-05:00,796592572.4,0,0.9600029,99.58976,1,0.9,2026-03-30T14:37:50.703-05:00,72,1.2,2026-03-30T12:48:13.834-05:00,0.123680593
2026-03-30T14:42:52.621-05:00,1774899772,30.28882039,-97.73755783,174.5159,0.02088438,0.3864482,244.2502968,39.30213792,3,8.231665404,-9999,135503.25,1.101730347,0.038513184,-0.059204102,135503.2236,-3.071336371,1.501719298,-0.20132983,1.461921215,0.173092082,0.038321953,-0.137697399,0.012521341,0.071442552,XArbitraryZVertical,0.67581438,0.097267377,-0.729360732,-0.042975163,0.977464795,0.199972481,-0.067627959,0,0,0,-1,-1,135502.9975,unknown,2,2026-03-30T14:42:52.364-05:00,2026-03-30T10:54:16.334-05:00,3826,1.355206,0,0,2579.042,4,4,2026-03-30T14:42:52.364-05:00,796592572.4,0,0.9600029,99.58976,1,0.9,2026-03-30T14:37:50.703-05:00,72,1.2,2026-03-30T12:48:13.834-05:00,0.123680593
2026-03-30T14:42:52.655-05:00,1774899772,30.28882039,-97.73755783,174.5159,0.02088438,0.3864482,244.2502968,39.30213792,3,8.231665404,-9999,135503.284,0.909881592,0.198455811,-0.11579895,135503.2538,-3.090557653,1.501475437,-0.197913446,0.246101126,-0.031346183,0.172164217,0.106104374,-0.166426882,0.018947728,XArbitraryZVertical,0.676776865,0.089534646,-0.729091321,-0.048809345,0.978124022,0.196623936,-0.067913242,0,0,0,-1,-1,135502.9975,unknown,2,2026-03-30T14:42:52.364-05:00,2026-03-30T10:54:16.334-05:00,3826,1.355206,0,0,2579.042,4,4,2026-03-30T14:42:52.364-05:00,796592572.4,0,0.9600029,99.58976,1,0.9,2026-03-30T14:37:50.703-05:00,72,1.2,2026-03-30T12:48:13.834-05:00,0.123680593
2026-03-30T14:42:52.686-05:00,1774899772,30.28882039,-97.73755783,174.5159,0.02088438,0.3864482,244.2502968,39.30213792,3,8.231665404,-9999,135503.3179,1.017837524,0.347457886,-0.316467285,135503.284,-3.100767662,1.495454942,-0.189306717,0.563070416,-0.130404934,0.315088212,-0.000833154,-0.007315695,-0.033878021,XArbitraryZVertical,0.675374957,0.083102107,-0.731113427,-0.049353259,0.97934866,0.188178048,-0.073925413,0,0,0,-1,-1,135502.9975,unknown,2,2026-03-30T14:42:52.364-05:00,2026-03-30T10:54:16.334-05:00,3826,1.355206,0,0,2579.042,4,4,2026-03-30T14:42:52.364-05:00,796592572.4,0,0.9600029,99.58976,1,0.9,2026-03-30T14:37:50.703-05:00,72,1.2,2026-03-30T12:48:13.834-05:00,0.123680593
2026-03-30T14:42:52.721-05:00,1774899772,30.28882039,-97.73755783,174.5159,0.02088438,0.3864482,244.2502968,39.30213792,3,8.231665404,-9999,135503.3518,1.00138855,0.052368164,-0.31628418,135503.3443,3.122965853,1.492800267,-0.164209031,1.320492506,0.18785879,0.236722976,0.102877021,0.035532996,-0.300191164,XArbitraryZVertical,0.677244414,0.05390332,-0.7311146,-0.062498149,0.98354882,0.163472056,-0.076868869,0,0,0,-1,-1,135502.9975,unknown,2,2026-03-30T14:42:52.364-05:00,2026-03-30T10:54:16.334-05:00,3826,1.355206,0,0,2579.042,4,4,2026-03-30T14:42:52.364-05:00,796592572.4,0,0.9600029,99.58976,1,0.9,2026-03-30T14:37:50.703-05:00,72,1.2,2026-03-30T12:48:13.834-05:00,0.123680593
2026-03-30T14:42:52.756-05:00,1774899772,30.28882039,-97.73755783,174.5159,0.02088438,0.3864482,244.2502968,39.30213792,3,8.231665404,-9999,135503.3857,1.039260864,-0.112945557,-0.008834839,135503.3744,3.088426381,1.493710156,-0.156301998,0.906114638,0.228766933,0.142740816,-0.07339251,-0.255764127,-0.124551587,XArbitraryZVertical,0.678544317,0.03926927,-0.729920885,-0.072463533,0.984876156,0.155666351,-0.076071069,0,0,0,-1,-1,135502.9975,unknown,2,2026-03-30T14:42:52.364-05:00,2026-03-30T10:54:16.334-05:00,3826,1.355206,0,0,2579.042,4,4,2026-03-30T14:42:52.364-05:00,796592572.4,0,0.9600029,99.58976,1,0.9,2026-03-30T14:37:50.703-05:00,72,1.2,2026-03-30T12:48:13.834-05:00,0.123680593
2026-03-30T14:42:52.791-05:00,1774899772,30.28882039,-97.73755783,174.5159,0.02088438,0.3864482,244.2502968,39.30213792,3,8.231665404,-9999,135503.4197,1.036331177,0.077911377,0.478347778,135503.4046,3.060895367,1.490754245,-0.150206546,1.017207623,-0.15122354,0.13929981,0.149908185,-0.151656613,0.292145252,XArbitraryZVertical,0.678010658,0.027809683,-0.730111472,-0.080407305,0.985574543,0.149642363,-0.079056337,0,0,0,-1,-1,135502.9975,unknown,2,2026-03-30T14:42:52.364-05:00,2026-03-30T10:54:16.334-05:00,3826,1.355206,0,0,2579.042,4,4,2026-03-30T14:42:52.364-05:00,796592572.4,0,0.9600029,99.58976,1,0.9,2026-03-30T14:37:50.703-05:00,72,1.2,2026-03-30T12:48:13.834-05:00,0.123680593
2026-03-30T14:42:52.822-05:00,1774899772,30.28882039,-97.73755783,174.5159,0.02088438,0.3864482,244.2502968,39.30213792,3,8.231665404,-9999,135503.4536,0.966003418,-0.130874634,0.622116089,135503.4347,3.034412501,1.476712397,-0.144593778,0.478661209,-0.519370556,0.03516854,0.034556806,-0.102876559,0.654884875,XArbitraryZVertical,0.673212653,0.017387187,-0.733980716,-0.088060391,0.985187948,0.144090459,-0.092964821,0,0,0,-1,-1,135502.9975,unknown,2,2026-03-30T14:42:52.364-05:00,2026-03-30T10:54:16.334-05:00,3826,1.355206,0,0,2579.042,4,4,2026-03-30T14:42:52.364-05:00,796592572.4,0,0.9600029,99.58976,1,0.9,2026-03-30T14:37:50.703-05:00,72,1.2,2026-03-30T12:48:13.834-05:00,0.123680593
2026-03-30T14:42:52.857-05:00,1774899772,30.28882039,-97.73755783,174.5159,0.02088438,0.3864482,244.2502968,39.30213792,3,8.231665404,-9999,135503.4875,1.195541382,0.053085327,0.211990356,135503.4649,3.041368747,1.460746419,-0.149588253,-0.860583901,-0.511701524,-0.241295725,-0.00956887,-0.270841956,0.690922499,XArbitraryZVertical,0.667235608,0.022269581,-0.739413236,-0.086999366,0.98285079,0.149030998,-0.108601421,0,0,0,-1,-1,135502.9975,unknown,2,2026-03-30T14:42:52.364-05:00,2026-03-30T10:54:16.334-05:00,3826,1.355206,0,0,2579.042,4,4,2026-03-30T14:42:52.364-05:00,796592572.4,0,0.9600029,99.58976,1,0.9,2026-03-30T14:37:50.703-05:00,72,1.2,2026-03-30T12:48:13.834-05:00,0.123680593
2026-03-30T14:42:52.892-05:00,1774899772,30.28882039,-97.73755783,174.5159,0.02088438,0.3864482,244.2502968,39.30213792,3,8.231665404,-9999,135503.5214,1.097640991,0.200958252,-0.1378479,135503.495,3.07197414,1.448397592,-0.158936094,-1.16204524,-0.649271548,-0.172415331,0.241395891,-0.095600024,0.301630437,XArbitraryZVertical,0.662113922,0.036440396,-0.74438384,-0.078548806,0.980009079,0.158267796,-0.120554507,0,0,0,-1,-1,135502.9975,unknown,2,2026-03-30T14:42:52.364-05:00,2026-03-30T10:54:16.334-05:00,3826,1.355206,0,0,2579.042,4,4,2026-03-30T14:42:52.364-05:00,796592572.4,0,0.9600029,99.58976,1,0.9,2026-03-30T14:37:50.703-05:00,72,1.2,2026-03-30T12:48:13.834-05:00,0.123680593
2026-03-30T14:42:52.927-05:00,1774899772,30.28882039,-97.73755783,174.5159,0.02088438,0.3864482,244.2502968,39.30213792,3,8.231665404,-9999,135503.5554,0.883453369,0.381820679,-0.312454224,135503.5252,3.106225273,1.435200799,-0.16919521,-0.984262586,-0.602702856,-0.156551942,0.130062521,0.023032337,0.006754637,XArbitraryZVertical,0.656250295,0.052062459,-0.749591649,-0.068828873,0.976672709,0.168389112,-0.133250102,0,0,0,-1,-1,135502.9975,unknown,2,2026-03-30T14:42:52.364-05:00,2026-03-30T10:54:16.334-05:00,3826,1.355206,0,0,2579.042,4,4,2026-03-30T14:42:52.364-05:00,796592572.4,0,0.9600029,99.58976,1,0.9,2026-03-30T14:37:50.703-05:00,72,1.2,2026-03-30T12:48:13.834-05:00,0.123680593
2026-03-30T14:42:52.957-05:00,1774899772,30.28882039,-97.73755783,174.5159,0.02088438,0.3864482,244.2502968,39.30213792,3,8.231665404,-9999,135503.5893,0.626022339,0.35168457,-0.311691284,135503.5554,3.121878621,1.41823995,-0.174044677,-0.033878528,-0.698635459,-0.021179272,-0.04553622,0.195729062,-0.154056832,XArbitraryZVertical,0.649320754,0.059563624,-0.755468687,-0.064044172,0.973453581,0.173167333,-0.149669468,0,0,0,-1,-1,135502.9975,unknown,2,2026-03-30T14:42:52.364-05:00,2026-03-30T10:54:16.334-05:00,3826,1.355206,0,0,2579.042,4,4,2026-03-30T14:42:52.364-05:00,796592572.4,0,0.9600029,99.58976,1,0.9,2026-03-30T14:37:50.703-05:00,72,1.2,2026-03-30T12:48:13.834-05:00,0.123680593
2026-03-30T14:42:52.993-05:00,1774899772,30.28882039,-97.73755783,174.5159,0.02088438,0.3864482,244.2502968,39.30213792,3,8.231665404,-9999,135503.6232,0.912475586,0.202407837,-0.270584106,135503.6157,3.087044478,1.378617068,-0.167012158,0.631327093,-0.541912913,-0.052114747,-0.180243134,0.076194733,-0.101621985,XArbitraryZVertical,0.6353071,0.047057832,-0.767264244,-0.073999836,0.967932284,0.166236833,-0.188340902,0,0,0,-1,-1,135502.9975,unknown,2,2026-03-30T14:42:52.364-05:00,2026-03-30T10:54:16.334-05:00,3826,1.355206,0,0,2579.042,4,4,2026-03-30T14:42:52.364-05:00,796592572.4,0,0.9600029,99.58976,1,0.9,2026-03-30T14:37:50.703-05:00,72,1.2,2026-03-30T12:48:13.834-05:00,0.123680593
2026-03-30T14:42:53.027-05:00,1774899772,30.28882039,-97.73755783,174.5159,0.02088438,0.3864482,244.2502968,39.30213792,3,8.231665404,-9999,135503.6571,1.005722046,0.27192688,-0.342163086,135503.6458,3.074771676,1.361924125,-0.166330867,0.272566915,-0.389981091,-0.062159631,-0.013317764,0.032890752,-0.0924564,XArbitraryZVertical,0.629170822,0.043549679,-0.77210307,-0.078130844,0.964764297,0.165564984,-0.204494998,0,0,0,-1,-1,135502.9975,unknown,2,2026-03-30T14:42:52.364-05:00,2026-03-30T10:54:16.334-05:00,3826,1.355206,0,0,2579.042,4,4,2026-03-30T14:42:52.364-05:00,796592572.4,0,0.9600029,99.58976,1,0.9,2026-03-30T14:37:50.703-05:00,72,1.2,2026-03-30T12:48:13.834-05:00,0.123680593
