loggingTime(txt),locationTimestamp_since1970(s),locationLatitude(WGS84),locationLongitude(WGS84),locationAltitude(m),locationSpeed(m/s),locationSpeedAccuracy(m/s),locationCourse(°),locationCourseAccuracy(°),locationVerticalAccuracy(m),locationHorizontalAccuracy(m),locationFloor(Z),accelerometerTimestamp_sinceReboot(s),accelerometerAccelerationX(G),accelerometerAccelerationY(G),accelerometerAccelerationZ(G),motionTimestamp_sinceReboot(s),motionYaw(rad),motionRoll(rad),motionPitch(rad),motionRotationRateX(rad/s),motionRotationRateY(rad/s),motionRotationRateZ(rad/s),motionUserAccelerationX(G),motionUserAccelerationY(G),motionUserAccelerationZ(G),motionAttitudeReferenceFrame(txt),motionQuaternionX(R),motionQuaternionY(R),motionQuaternionZ(R),motionQuaternionW(R),motionGravityX(G),motionGravityY(G),motionGravityZ(G),motionMagneticFieldX(µT),motionMagneticFieldY(µT),motionMagneticFieldZ(µT),motionHeading(°),motionMagneticFieldCalibrationAccuracy(Z),activityTimestamp_sinceReboot(s),activity(txt),activityActivityConfidence(Z),activityActivityStartDate(txt),pedometerStartDate(txt),pedometerNumberofSteps(N),pedometerAverageActivePace(s/m),pedometerCurrentPace(s/m),pedometerCurrentCadence(steps/s),pedometerDistance(m),pedometerFloorAscended(N),pedometerFloorDescended(N),pedometerEndDate(txt),altimeterTimestamp_sinceReboot(s),altimeterReset(bool),altimeterRelativeAltitude(m),altimeterPressure(kPa),batteryState(N),batteryLevel(R),heartRateBPMTimestamp(txt),heartRateBPM(N),heartRateBPS(R),heartRateVariabilityTimestamp(txt),heartRateVariability(ms)
2026-03-30T14:41:37.002-05:00,1774899693.296833,30.28885043726369,-97.73760679948265,174.3939,0.0580384,0.3763887,-1,-1,3,8.171292255223152,-9999,135427.6317736667,0.7265167236328125,0.297027587890625,-0.6088409423828125,135427.6242356667,-3.055979877626009,0.8703778066522704,-0.2983980128474893,0.0008727286476641893,0.0006185146048665047,0.002429853659123182,-0.002818822860717773,0.004670798778533936,0.005825221538543701,XArbitraryZVertical,-0.4107480918086204,-0.152507827165238,0.8985765986161767,0.02423561123248974,0.7307850122451782,0.2939893901348114,-0.6160547137260437,0,0,0,-1,-1,135415.506766125,unknown,2,2026-03-30T14:41:24.874-05:00,2026-03-30T10:54:16.334-05:00,3805,1.355992,0,0,2567.05,4,4,2026-03-30T14:40:59.141-05:00,796592495.2330376,0,0.8700027,99.59172,1,0.9,2026-03-30T14:37:50.703-05:00,72,1.2,2026-03-30T12:48:13.834-05:00,0.1236805929763694
2026-03-30T14:41:37.036-05:00,1774899693.296833,30.28885043726369,-97.73760679948265,174.3939,0.0580384,0.3763887,-1,-1,3,8.171292255223152,-9999,135427.6656986667,0.7247161865234375,0.2988433837890625,-0.6107330322265625,135427.6543906667,-3.055855746293468,0.8704332651422364,-0.2984748352278725,-0.003377520944923162,-0.002701366320252419,0.001191437244415283,-0.001828610897064209,0.001835554838180542,0.009569525718688965,XArbitraryZVertical,-0.4107596405105742,-0.152566953636077,0.8985623127508782,0.02420027015896721,0.7308019399642944,0.2940628230571747,-0.615999698638916,0,0,0,-1,-1,135415.506766125,unknown,2,2026-03-30T14:41:24.874-05:00,2026-03-30T10:54:16.334-05:00,3805,1.355992,0,0,2567.05,4,4,2026-03-30T14:40:59.141-05:00,796592495.2330376,0,0.8700027,99.59172,1,0.9,2026-03-30T14:37:50.703-05:00,72,1.2,2026-03-30T12:48:13.834-05:00,0.1236805929763694
2026-03-30T14:41:37.071-05:00,1774899693.296833,30.28885043726369,-97.73760679948265,174.3939,0.0580384,0.3763887,-1,-1,3,8.171292255223152,-9999,135427.6996236667,0.72857666015625,0.2983856201171875,-0.6131439208984375,135427.6845466667,-3.055850668338503,0.8704782313401769,-0.2984864681925948,0.004628607071936131,-0.001248625107109547,-0.0006063614273443818,-0.005103766918182373,0.004509985446929932,0.003690361976623535,XArbitraryZVertical,-0.4107788924084567,-0.1525726532440883,0.898552351605429,0.02420390166814346,0.7308269739151001,0.2940739393234253,-0.6159645915031433,0,0,0,-1,-1,135415.506766125,unknown,2,2026-03-30T14:41:24.874-05:00,2026-03-30T10:54:16.334-05:00,3805,1.355992,0,0,2567.05,4,4,2026-03-30T14:40:59.141-05:00,796592495.2330376,0,0.8700027,99.59172,1,0.9,2026-03-30T14:37:50.703-05:00,72,1.2,2026-03-30T12:48:13.834-05:00,0.1236805929763694
2026-03-30T14:41:37.102-05:00,1774899693.296833,30.28885043726369,-97.73760679948265,174.3939,0.0580384,0.3763887,-1,-1,3,8.171292255223152,-9999,135427.7335476667,0.7283935546875,0.2947235107421875,-0.6126861572265625,135427.7147016667,-3.055985103823154,0.8704555643572311,-0.2984280212837533,0.005565884057432413,0.00186885567381978,-7.687842298764735e-05,-0.003622889518737793,0.002597451210021973,0.002695679664611816,XArbitraryZVertical,-0.4107819041514357,-0.1525192116668893,0.8985588394144425,0.02425021851095359,0.730826199054718,0.2940180599689484,-0.6159922480583191,0,0,0,-1,-1,135415.506766125,unknown,2,2026-03-30T14:41:24.874-05:00,2026-03-30T10:54:16.334-05:00,3805,1.355992,0,0,2567.05,4,4,2026-03-30T14:40:59.141-05:00,796592495.2330376,0,0.8700027,99.59172,1,0.9,2026-03-30T14:37:50.703-05:00,72,1.2,2026-03-30T12:48:13.834-05:00,0.1236805929763694
2026-03-30T14:41:37.137-05:00,1774899693.296833,30.28885043726369,-97.73760679948265,174.3939,0.0580384,0.3763887,-1,-1,3,8.171292255223152,-9999,135427.7674726667,0.7306671142578125,0.2951202392578125,-0.6089630126953125,135427.7448576667,-3.056115803146008,0.8705319135124977,-0.298344026028223,0.009662291966378689,0.001556593226268888,0.002647053450345993,-0.002422332763671875,0.001045018434524536,0.00412064790725708,XArbitraryZVertical,-0.4108304093346899,-0.1524539266469872,0.8985464839949249,0.02429702117434868,0.7308920621871948,0.2939378023147583,-0.6159523725509644,0,0,0,-1,-1,135415.506766125,unknown,2,2026-03-30T14:41:24.874-05:00,2026-03-30T10:54:16.334-05:00,3805,1.355992,0,0,2567.05,4,4,2026-03-30T14:40:59.141-05:00,796592495.2330376,0,0.8700027,99.59172,1,0.9,2026-03-30T14:37:50.703-05:00,72,1.2,2026-03-30T12:48:13.834-05:00,0.1236805929763694
2026-03-30T14:41:37.172-05:00,1774899693.296833,30.28885043726369,-97.73760679948265,174.3939,0.0580384,0.3763887,-1,-1,3,8.171292255223152,-9999,135427.8013986667,0.726226806640625,0.2985076904296875,-0.607696533203125,135427.7750126667,-3.056239768097482,0.870520272214117,-0.2983039076431845,0.00113589339889586,-0.001923654228448868,0.001057294313795865,0.0005207657814025879,0.0006103515625,0.007203757762908936,XArbitraryZVertical,-0.4108366521724393,-0.1524106871597919,0.8985497065018595,0.02434335753515109,0.7308939099311829,0.2938994467258453,-0.6159684658050537,0,0,0,-1,-1,135415.506766125,unknown,2,2026-03-30T14:41:24.874-05:00,2026-03-30T10:54:16.334-05:00,3805,1.355992,0,0,2567.05,4,4,2026-03-30T14:40:59.141-05:00,796592495.2330376,0,0.8700027,99.59172,1,0.9,2026-03-30T14:37:50.703-05:00,72,1.2,2026-03-30T12:48:13.834-05:00,0.1236805929763694
2026-03-30T14:41:37.207-05:00,1774899693.296833,30.28885043726369,-97.73760679948265,174.3939,0.0580384,0.3763887,-1,-1,3,8.171292255223152,-9999,135427.8353236667,0.7301788330078125,0.2973785400390625,-0.6067047119140625,135427.8051686667,-3.056221384223273,0.8705425797780728,-0.298329549791797,0.003708595875650644,0.002672597765922546,0.001528741326183081,-0.005132913589477539,0.004934638738632202,0.007960796356201172,XArbitraryZVertical,-0.4108439865937899,-0.1524256453025747,0.8985438219476103,0.02434221982399471,0.7309018969535828,0.293923944234848,-0.6159473061561584,0,0,0,-1,-1,135415.506766125,unknown,2,2026-03-30T14:41:24.874-05:00,2026-03-30T10:54:16.334-05:00,3805,1.355992,0,0,2567.05,4,4,2026-03-30T14:40:59.141-05:00,796592495.2330376,0,0.8700027,99.59172,1,0.9,2026-03-30T14:37:50.703-05:00,72,1.2,2026-03-30T12:48:13.834-05:00,0.1236805929763694
2026-03-30T14:41:37.237-05:00,1774899693.296833,30.28885043726369,-97.73760679948265,174.3939,0.0580384,0.3763887,-1,-1,3,8.171292255223152,-9999,135427.8692466667,0.7292327880859375,0.295989990234375,-0.608154296875,135427.8353236667,-3.056213499789224,0.8705924198401238,-0.2983682943901175,0.001479929313063622,-0.0002236035652458668,0.0008819609647616744,-0.0009739995002746582,0.001632213592529297,0.009763360023498535,XArbitraryZVertical,-0.4108638028623573,-0.1524439568005313,0.898531503652363,0.0243506369335571,0.7309239506721497,0.2939609885215759,-0.6159035563468933,0,0,0,-1,-1,135415.506766125,unknown,2,2026-03-30T14:41:24.874-05:00,2026-03-30T10:54:16.334-05:00,3805,1.355992,0,0,2567.05,4,4,2026-03-30T14:40:59.141-05:00,796592495.2330376,0,0.8700027,99.59172,1,0.9,2026-03-30T14:37:50.703-05:00,72,1.2,2026-03-30T12:48:13.834-05:00,0.1236805929763694
2026-03-30T14:41:37.273-05:00,1774899693.296833,30.28885043726369,-97.73760679948265,174.3939,0.0580384,0.3763887,-1,-1,3,8.171292255223152,-9999,135427.9031726667,0.72802734375,0.2961273193359375,-0.610870361328125,135427.8956346667,-3.056305116161935,0.8706779221114981,-0.2983491886566465,0.003231468610465527,-0.001332066487520933,0.001752100186422467,-0.003426611423492432,0.001253724098205566,0.006500124931335449,XArbitraryZVertical,-0.4109101815851325,-0.1524155649716175,0.898513851478814,0.02439429913722189,0.7309808135032654,0.2939427196979523,-0.6158446073532104,0,0,0,-1,-1,135415.506766125,unknown,2,2026-03-30T14:41:24.874-05:00,2026-03-30T10:54:16.334-05:00,3805,1.355992,0,0,2567.05,4,4,2026-03-30T14:40:59.141-05:00,796592495.2330376,0,0.8700027,99.59172,1,0.9,2026-03-30T14:37:50.703-05:00,72,1.2,2026-03-30T12:48:13.834-05:00,0.1236805929763694
2026-03-30T14:41:37.308-05:00,1774899693.296833,30.28885043726369,-97.73760679948265,174.3939,0.0580384,0.3763887,-1,-1,3,8.171292255223152,-9999,135427.9370976667,0.7283782958984375,0.2963409423828125,-0.6111297607421875,135427.9257896667,-3.056295694599527,0.8708426262459853,-0.2984401729985691,0.0005318219773471355,0.0002831676974892616,0.0004754443070851266,-0.002744615077972412,0.002189129590988159,0.004226207733154297,XArbitraryZVertical,-0.4109788595144235,-0.1524561201450613,0.8984748443321823,0.02442182853314125,0.7310618162155151,0.2940296828746796,-0.6157070398330688,0,0,0,-1,-1,135415.506766125,unknown,2,2026-03-30T14:41:24.874-05:00,2026-03-30T10:54:16.334-05:00,3805,1.355992,0,0,2567.05,4,4,2026-03-30T14:40:59.141-05:00,796592495.2330376,0,0.8700027,99.59172,1,0.9,2026-03-30T14:37:50.703-05:00,72,1.2,2026-03-30T12:48:13.834-05:00,0.1236805929763694
2026-03-30T14:41:37.343-05:00,1774899693.296833,30.28885043726369,-97.73760679948265,174.3939,0.0580384,0.3763887,-1,-1,3,8.171292255223152,-9999,135427.9710236667,0.7280120849609375,0.296966552734375,-0.610626220703125,135427.9559456667,-3.056157346639546,0.8710255737446664,-0.2986845055017632,-0.002958317287266254,-4.567205905914307e-06,-0.0007385766366496682,-0.001566290855407715,0.0003839433193206787,0.003100156784057617,XArbitraryZVertical,-0.4110381611390308,-0.1525914230577606,0.8984246572877876,0.02442524732822691,0.7311194539070129,0.2942632138729095,-0.6155269742012024,0,0,0,-1,-1,135415.506766125,unknown,2,2026-03-30T14:41:24.874-05:00,2026-03-30T10:54:16.334-05:00,3805,1.355992,0,0,2567.05,4,4,2026-03-30T14:40:59.141-05:00,796592495.2330376,0,0.8700027,99.59172,1,0.9,2026-03-30T14:37:50.703-05:00,72,1.2,2026-03-30T12:48:13.834-05:00,0.1236805929763694
2026-03-30T14:41:37.374-05:00,1774899693.296833,30.28885043726369,-97.73760679948265,174.3939,0.0580384,0.3763887,-1,-1,3,8.171292255223152,-9999,135428.0049466667,0.7275238037109375,0.29681396484375,-0.6083526611328125,135427.9861006667,-3.056076235867432,0.8711328934964654,-0.2988586380361519,0.0004328635986894369,-2.287188544869423e-05,0.0005353485466912389,-0.003470003604888916,0.001377195119857788,0.005475878715515137,XArbitraryZVertical,-0.4110713650315232,-0.1526845327011606,0.8983934802074099,0.0244337771649234,0.7311463356018066,0.2944296300411224,-0.6154155135154724,0,0,0,-1,-1,135415.506766125,unknown,2,2026-03-30T14:41:24.874-05:00,2026-03-30T10:54:16.334-05:00,3805,1.355992,0,0,2567.05,4,4,2026-03-30T14:40:59.141-05:00,796592495.2330376,0,0.8700027,99.59172,1,0.9,2026-03-30T14:37:50.703-05:00,72,1.2,2026-03-30T12:48:13.834-05:00,0.1236805929763694
2026-03-30T14:41:37.409-05:00,1774899693.296833,30.28885043726369,-97.73760679948265,174.3939,0.0580384,0.3763887,-1,-1,3,8.171292255223152,-9999,135428.0388716667,0.72930908203125,0.2958984375,-0.6077728271484375,135428.0162566667,-3.056064684606766,0.8711852429486585,-0.299081646342695,-0.003655199892818928,-0.001780755817890167,0.0004454140434972942,-0.003299355506896973,0.0006147623062133789,0.007928252220153809,XArbitraryZVertical,-0.4110827282383126,-0.1527858419454234,0.8983697906150304,0.02447971460674795,0.7311282753944397,0.2946427464485168,-0.6153349280357361,0,0,0,-1,-1,135415.506766125,unknown,2,2026-03-30T14:41:24.874-05:00,2026-03-30T10:54:16.334-05:00,3805,1.355992,0,0,2567.05,4,4,2026-03-30T14:40:59.141-05:00,796592495.2330376,0,0.8700027,99.59172,1,0.9,2026-03-30T14:37:50.703-05:00,72,1.2,2026-03-30T12:48:13.834-05:00,0.1236805929763694
2026-03-30T14:41:37.443-05:00,1774899693.296833,30.28885043726369,-97.73760679948265,174.3939,0.0580384,0.3763887,-1,-1,3,8.171292255223152,-9999,135428.0727976667,0.728546142578125,0.2957305908203125,-0.6092071533203125,135428.0464116667,-3.055947402208969,0.8712681430350212,-0.2993043970144798,-0.004715980961918831,-0.001441580709069967,-0.0004154169000685215,-0.001820027828216553,0.001439481973648071,0.007352352142333984,XArbitraryZVertical,-0.4110997356205018,-0.1529083901610352,0.8983411259421524,0.02448044573451905,0.7311290502548218,0.2948555946350098,-0.6152320504188538,0,0,0,-1,-1,135415.506766125,unknown,2,2026-03-30T14:41:24.874-05:00,2026-03-30T10:54:16.334-05:00,3805,1.355992,0,0,2567.05,4,4,2026-03-30T14:40:59.141-05:00,796592495.2330376,0,0.8700027,99.59172,1,0.9,2026-03-30T14:37:50.703-05:00,72,1.2,2026-03-30T12:48:13.834-05:00,0.1236805929763694
2026-03-30T14:41:37.478-05:00,1774899693.296833,30.28885043726369,-97.73760679948265,174.3939,0.0580384,0.3763887,-1,-1,3,8.171292255223152,-9999,135428.1067226667,0.7296142578125,0.3000640869140625,-0.6105804443359375,135428.0765676667,-3.055709848888356,0.8713846856266336,-0.2996903013735112,-0.01006627175956964,-0.001549411099404097,-0.0009016466210596263,-0.001941978931427002,0.0006740093231201172,0.006110489368438721,XArbitraryZVertical,-0.4111143630024893,-0.1531280870336175,0.8982974190365606,0.024464233285218,0.731113612651825,0.2952243387699127,-0.615073561668396,0,0,0,-1,-1,135415.506766125,unknown,2,2026-03-30T14:41:24.874-05:00,2026-03-30T10:54:16.334-05:00,3805,1.355992,0,0,2567.05,4,4,2026-03-30T14:40:59.141-05:00,796592495.2330376,0,0.8700027,99.59172,1,0.9,2026-03-30T14:37:50.703-05:00,72,1.2,2026-03-30T12:48:13.834-05:00,0.1236805929763694
2026-03-30T14:41:37.509-05:00,1774899693.296833,30.28885043726369,-97.73760679948265,174.3939,0.0580384,0.3763887,-1,-1,3,8.171292255223152,-9999,135428.1406466667,0.7283935546875,0.2961883544921875,-0.6076202392578125,135428.1067226667,-3.055526908556705,0.8716210936348933,-0.2999201412568972,-0.001418899046257138,0.0003964626230299473,-9.038015559781343e-05,-0.001623392105102539,0.003933459520339966,0.003986597061157227,XArbitraryZVertical,-0.4111948577894064,-0.1532654092357528,0.8982376026859989,0.02444875687733667,0.7312070727348328,0.2954439222812653,-0.614857017993927,0,0,0,-1,-1,135415.506766125,unknown,2,2026-03-30T14:41:24.874-05:00,2026-03-30T10:54:16.334-05:00,3805,1.355992,0,0,2567.05,4,4,2026-03-30T14:40:59.141-05:00,796592495.2330376,0,0.8700027,99.59172,1,0.9,2026-03-30T14:37:50.703-05:00,72,1.2,2026-03-30T12:48:13.834-05:00,0.1236805929763694
2026-03-30T14:41:37.544-05:00,1774899693.296833,30.28885043726369,-97.73760679948265,174.3939,0.0580384,0.3763887,-1,-1,3,8.171292255223152,-9999,135428.1745716667,0.7258453369140625,0.2976837158203125,-0.6087799072265625,135428.1670336667,-3.055366625650955,0.8719028466648033,-0.3000370372646632,-0.002568918513134122,0.0006021850276738405,-0.0002237538137705997,-0.005798459053039551,0.0008310675621032715,0.00536048412322998,XArbitraryZVertical,-0.411303167902787,-0.1533471056795201,0.8981747665478739,0.02442308908351105,0.7313538193702698,0.295555591583252,-0.6146287322044373,0,0,0,-1,-1,135415.506766125,unknown,2,2026-03-30T14:41:24.874-05:00,2026-03-30T10:54:16.334-05:00,3805,1.355992,0,0,2567.05,4,4,2026-03-30T14:40:59.141-05:00,796592495.2330376,0,0.8700027,99.59172,1,0.9,2026-03-30T14:37:50.703-05:00,72,1.2,2026-03-30T12:48:13.834-05:00,0.1236805929763694
2026-03-30T14:41:37.579-05:00,1774899693.296833,30.28885043726369,-97.73760679948265,174.3939,0.0580384,0.3763887,-1,-1,3,8.171292255223152,-9999,135428.2084966667,0.7284393310546875,0.300445556640625,-0.6116943359375,135428.1971896667,-3.055307272901187,0.8719259123530073,-0.3003051990539793,-0.006864952854812145,-0.001027571968734264,-0.001314119668677449,-0.001143813133239746,0.001734524965286255,0.002423942089080811,XArbitraryZVertical,-0.4112953438420355,-0.1534787286116952,0.8981549645045647,0.02445492866682654,0.7313072681427002,0.2958117723464966,-0.6145608425140381,0,0,0,-1,-1,135415.506766125,unknown,2,2026-03-30T14:41:24.874-05:00,2026-03-30T10:54:16.334-05:00,3805,1.355992,0,0,2567.05,4,4,2026-03-30T14:40:59.141-05:00,796592495.2330376,0,0.8700027,99.59172,1,0.9,2026-03-30T14:37:50.703-05:00,72,1.2,2026-03-30T12:48:13.834-05:00,0.1236805929763694
2026-03-30T14:41:37.614-05:00,1774899693.296833,30.28885043726369,-97.73760679948265,174.3939,0.0580384,0.3763887,-1,-1,3,8.171292255223152,-9999,135428.2424226667,0.730682373046875,0.294464111328125,-0.6113433837890625,135428.2273446667,-3.055265617836272,0.8720019151379292,-0.3004048313190619,-0.0006110069807618856,0.003681247588247061,0.001411126926541328,-0.004036545753479004,0.004202872514724731,-0.0006718635559082031,XArbitraryZVertical,-0.4113212090435801,-0.153530836702464,0.8981339815698379,0.02446313100384386,0.7313314080238342,0.2959069311618805,-0.6144862771034241,0,0,0,-1,-1,135415.506766125,unknown,2,2026-03-30T14:41:24.874-05:00,2026-03-30T10:54:16.334-05:00,3805,1.355992,0,0,2567.05,4,4,2026-03-30T14:40:59.141-05:00,796592495.2330376,0,0.8700027,99.59172,1,0.9,2026-03-30T14:37:50.703-05:00,72,1.2,2026-03-30T12:48:13.834-05:00,0.1236805929763694
2026-03-30T14:41:37.645-05:00,1774899693.296833,30.28885043726369,-97.73760679948265,174.3939,0.0580384,0.3763887,-1,-1,3,8.171292255223152,-9999,135428.2763456667,0.7320404052734375,0.2965545654296875,-0.6077880859375,135428.2575006667,-3.055050036280148,0.8721907373497789,-0.3006026593713989,-0.01054524164646864,0.006613430567085743,-7.356845890171826e-05,0.001980483531951904,-0.001464009284973145,0.004843950271606445,XArbitraryZVertical,-0.4113793542102074,-0.1536611612700706,0.8980862111516295,0.02442265878226052,0.7314026355743408,0.2960959076881409,-0.6143105626106262,0,0,0,-1,-1,135415.506766125,unknown,2,2026-03-30T14:41:24.874-05:00,2026-03-30T10:54:16.334-05:00,3805,1.355992,0,0,2567.05,4,4,2026-03-30T14:40:59.141-05:00,796592495.2330376,0,0.8700027,99.59172,1,0.9,2026-03-30T14:37:50.703-05:00,72,1.2,2026-03-30T12:48:13.834-05:00,0.1236805929763694
2026-03-30T14:41:37.680-05:00,1774899693.296833,30.28885043726369,-97.73760679948265,174.3939,0.0580384,0.3763887,-1,-1,3,8.171292255223152,-9999,135428.3102716667,0.727691650390625,0.2947540283203125,-0.60845947265625,135428.2876556667,-3.054621536373611,0.8724260841952611,-0.3009059126317009,-0.02217522263526917,0.001612603897228837,0.0036135483533144,0.0008366703987121582,-0.003172695636749268,0.007772564888000488,XArbitraryZVertical,-0.4114366264560256,-0.1538817794603774,0.8980251093287347,0.0243125328895594,0.7314783334732056,0.2963855266571045,-0.6140806078910828,0,0,0,-1,-1,135415.506766125,unknown,2,2026-03-30T14:41:24.874-05:00,2026-03-30T10:54:16.334-05:00,3805,1.355992,0,0,2567.05,4,4,2026-03-30T14:40:59.141-05:00,796592495.2330376,0,0.8700027,99.59172,1,0.9,2026-03-30T14:37:50.703-05:00,72,1.2,2026-03-30T12:48:13.834-05:00,0.1236805929763694
2026-03-30T14:41:37.715-05:00,1774899693.296833,30.28885043726369,-97.73760679948265,174.3939,0.0580384,0.3763887,-1,-1,3,8.171292255223152,-9999,135428.3441967917,0.7256317138671875,0.3014373779296875,-0.612152099609375,135428.3178106667,-3.053893596678807,0.8726636043054529,-0.3014120704212331,-0.03258340805768967,0.0001009651459753513,0.003562563564628363,-0.003954887390136719,-0.001718223094940186,0.005701780319213867,XArbitraryZVertical,-0.4114612548871956,-0.1542545176781004,0.8979553582101345,0.02411110693471747,0.7315092086791992,0.2968689203262329,-0.6138103604316711,0,0,0,-1,-1,135415.506766125,unknown,2,2026-03-30T14:41:24.874-05:00,2026-03-30T10:54:16.334-05:00,3805,1.355992,0,0,2567.05,4,4,2026-03-30T14:40:59.141-05:00,796592495.2330376,0,0.8700027,99.59172,1,0.9,2026-03-30T14:37:50.703-05:00,72,1.2,2026-03-30T12:48:13.834-05:00,0.1236805929763694
2026-03-30T14:41:37.750-05:00,1774899693.296833,30.28885043726369,-97.73760679948265,174.3939,0.0580384,0.3763887,-1,-1,3,8.171292255223152,-9999,135428.3781217917,0.7196807861328125,0.3042449951171875,-0.611968994140625,135428.3479667917,-3.053122555406155,0.8729336419029079,-0.3019130529443693,-0.03396403789520264,-0.000146766658872366,0.00188426929526031,-0.006539583206176758,0.004624098539352417,0.0008004307746887207,XArbitraryZVertical,-0.4114971621046959,-0.1546334276481742,0.8978796361253494,0.02389185682618825,0.7315608859062195,0.2973472774028778,-0.613517165184021,0,0,0,-1,-1,135415.506766125,unknown,2,2026-03-30T14:41:24.874-05:00,2026-03-30T10:54:16.334-05:00,3805,1.355992,0,0,2567.05,4,4,2026-03-30T14:40:59.141-05:00,796592495.2330376,0,0.8700027,99.59172,1,0.9,2026-03-30T14:37:50.703-05:00,72,1.2,2026-03-30T12:48:13.834-05:00,0.1236805929763694
2026-03-30T14:41:37.780-05:00,1774899693.296833,30.28885043726369,-97.73760679948265,174.3939,0.0580384,0.3763887,-1,-1,3,8.171292255223152,-9999,135428.4120457917,0.7217254638671875,0.3004608154296875,-0.6210784912109375,135428.3781217917,-3.052309693713543,0.8732120576233823,-0.3024317129258402,-0.02029214426875114,0.003663952462375164,0.002901385305449367,-0.009125053882598877,0.004876613616943359,0.002786397933959961,XArbitraryZVertical,-0.4115324114890486,-0.1550287407522948,0.8978014964414693,0.02365835995043806,0.7316133975982666,0.2978424429893494,-0.6132143139839172,0,0,0,-1,-1,135415.506766125,unknown,2,2026-03-30T14:41:24.874-05:00,2026-03-30T10:54:16.334-05:00,3805,1.355992,0,0,2567.05,4,4,2026-03-30T14:40:59.141-05:00,796592495.2330376,0,0.8700027,99.59172,1,0.9,2026-03-30T14:37:50.703-05:00,72,1.2,2026-03-30T12:48:13.834-05:00,0.1236805929763694
2026-03-30T14:41:37.815-05:00,1774899693.296833,30.28885043726369,-97.73760679948265,174.3939,0.0580384,0.3763887,-1,-1,3,8.171292255223152,-9999,135428.4459707917,0.725372314453125,0.2969512939453125,-0.6217041015625,135428.4384327917,-3.052342616603616,0.8737598535903407,-0.3024217219927701,0.01796866953372955,0.018795445561409,-0.0003100360918324441,-0.008135557174682617,0.001330852508544922,-0.0111318826675415,XArbitraryZVertical,-0.4117813823286007,-0.1550110229334907,0.8976888958008719,0.02371349218567141,0.7319514155387878,0.2978329062461853,-0.6128153800964355,0,0,0,-1,-1,135415.506766125,unknown,2,2026-03-30T14:41:24.874-05:00,2026-03-30T10:54:16.334-05:00,3805,1.355992,0,0,2567.05,4,4,2026-03-30T14:40:59.141-05:00,796592497.8029202,0,0.8900032,99.59074,1,0.9,2026-03-30T14:37:50.703-05:00,72,1.2,2026-03-30T12:48:13.834-05:00,0.1236805929763694
2026-03-30T14:41:37.850-05:00,1774899693.296833,30.28885043726369,-97.73760679948265,174.3939,0.0580384,0.3763887,-1,-1,3,8.171292255223152,-9999,135428.4798967917,0.733001708984375,0.2948455810546875,-0.6112213134765625,135428.4685887917,-3.053009124645328,0.8740930379939789,-0.3018359475790632,0.03659901395440102,0.01284423284232616,0.001419002306647599,-0.004002630710601807,-0.001833081245422363,-0.005862295627593994,XArbitraryZVertical,-0.4120128206432134,-0.1546085339264931,0.8976467523701974,0.02391425413487076,0.7322892546653748,0.2972736656665802,-0.6126832962036133,0,0,0,-1,-1,135415.506766125,unknown,2,2026-03-30T14:41:24.874-05:00,2026-03-30T10:54:16.334-05:00,3805,1.355992,0,0,2567.05,4,4,2026-03-30T14:40:59.141-05:00,796592497.8029202,0,0.8900032,99.59074,1,0.9,2026-03-30T14:37:50.703-05:00,72,1.2,2026-03-30T12:48:13.834-05:00,0.1236805929763694
2026-03-30T14:41:37.885-05:00,1774899697.829298,30.28872354425242,-97.73757598090032,173.7668,1.307029,0.9794532,-1,-1,59.56209945678711,22.04311341721518,-9999,135428.5138217917,0.77630615234375,0.278411865234375,-0.588714599609375,135428.4987437917,-3.054207239194005,0.8746147793548569,-0.3006215414616721,0.0489608533680439,0.0101671414449811,-0.03384921699762344,-0.02820396423339844,0.0100230872631073,0.001707553863525391,XArbitraryZVertical,-0.4124018116812894,-0.1538136702447741,0.8975961141930147,0.02423464782410155,0.7328853011131287,0.2961139380931854,-0.6125321984291077,0,0,0,-1,-1,135415.506766125,unknown,2,2026-03-30T14:41:24.874-05:00,2026-03-30T10:54:16.334-05:00,3805,1.355992,0,0,2567.05,4,4,2026-03-30T14:40:59.141-05:00,796592497.8029202,0,0.8900032,99.59074,1,0.9,2026-03-30T14:37:50.703-05:00,72,1.2,2026-03-30T12:48:13.834-05:00,0.1236805929763694
2026-03-30T14:41:37.916-05:00,1774899697.829298,30.28872354425242,-97.73757598090032,173.7668,1.307029,0.9794532,-1,-1,59.56209945678711,22.04311341721518,-9999,135428.5477447917,0.7308502197265625,0.3010406494140625,-0.6010894775390625,135428.5288997917,-3.05498542391476,0.874473112563023,-0.3001362476741816,0.04403229430317879,0.01514732092618942,-0.003548224456608295,-0.003675937652587891,-0.0037040114402771,0.0124625563621521,XArbitraryZVertical,-0.4124228072764405,-0.1534384591176372,0.8976443302340327,0.02447008288946409,0.7329086661338806,0.2956503629684448,-0.6127281188964844,0,0,0,-1,-1,135415.506766125,unknown,2,2026-03-30T14:41:24.874-05:00,2026-03-30T10:54:16.334-05:00,3805,1.355992,0,0,2567.05,4,4,2026-03-30T14:40:59.141-05:00,796592497.8029202,0,0.8900032,99.59074,1,0.9,2026-03-30T14:37:50.703-05:00,72,1.2,2026-03-30T12:48:13.834-05:00,0.1236805929763694
2026-03-30T14:41:37.951-05:00,1774899697.829298,30.28872354425242,-97.73757598090032,173.7668,1.307029,0.9794532,-1,-1,59.56209945678711,22.04311341721518,-9999,135428.5816707917,0.7248992919921875,0.305267333984375,-0.6083221435546875,135428.5590547917,-3.056255240685384,0.8743681785604389,-0.2992643184113535,0.05220049619674683,0.0028430400416255,-0.004175749607384205,0.002813160419464111,0.003583520650863647,0.01397109031677246,XArbitraryZVertical,-0.4125172287370473,-0.1527888851871149,0.8977014160947783,0.02484709082047664,0.7330418825149536,0.2948172986507416,-0.6129701733589172,0,0,0,-1,-1,135415.506766125,unknown,2,2026-03-30T14:41:24.874-05:00,2026-03-30T10:54:16.334-05:00,3805,1.355992,0,0,2567.05,4,4,2026-03-30T14:40:59.141-05:00,796592497.8029202,0,0.8900032,99.59074,1,0.9,2026-03-30T14:37:50.703-05:00,72,1.2,2026-03-30T12:48:13.834-05:00,0.1236805929763694
2026-03-30T14:41:37.987-05:00,1774899697.829298,30.28872354425242,-97.73757598090032,173.7668,1.307029,0.9794532,-1,-1,59.56209945678711,22.04311341721518,-9999,135428.6155957917,0.7286224365234375,0.302978515625,-0.610870361328125,135428.5892107917,-3.058086040340672,0.8741146000028154,-0.2979143638829072,0.09834067523479462,0.007313673384487629,8.908308518584818e-05,-0.007711946964263916,0.01372382044792175,0.004783451557159424,XArbitraryZVertical,-0.4126108075235858,-0.1518120312383485,0.8978096623080793,0.02536344625431831,0.7331910133361816,0.2935270667076111,-0.6134108304977417,0,0,0,-1,-1,135415.506766125,unknown,2,2026-03-30T14:41:24.874-05:00,2026-03-30T10:54:16.334-05:00,3805,1.355992,0,0,2567.05,4,4,2026-03-30T14:40:59.141-05:00,796592497.8029202,0,0.8900032,99.59074,1,0.9,2026-03-30T14:37:50.703-05:00,72,1.2,2026-03-30T12:48:13.834-05:00,0.1236805929763694
2026-03-30T14:41:38.021-05:00,1774899697.829298,30.28872354425242,-97.73757598090032,173.7668,1.307029,0.9794532,-1,-1,59.56209945678711,22.04311341721518,-9999,135428.6495217917,0.7342987060546875,0.2964019775390625,-0.606719970703125,135428.6193657917,-3.060598630216592,0.8736912976686737,-0.2958581984003822,0.1040778607130051,0.01258259732276201,-0.0009146115626208484,-0.004647970199584961,0.01199743151664734,0.002718091011047363,XArbitraryZVertical,-0.412712777541482,-0.1503812275426778,0.8979845848905542,0.02602393457836238,0.7333924174308777,0.2915608584880829,-0.6141073107719421,0,0,0,-1,-1,135415.506766125,unknown,2,2026-03-30T14:41:24.874-05:00,2026-03-30T10:54:16.334-05:00,3805,1.355992,0,0,2567.05,4,4,2026-03-30T14:40:59.141-05:00,796592497.8029202,0,0.8900032,99.59074,1,0.9,2026-03-30T14:37:50.703-05:00,72,1.2,2026-03-30T12:48:13.834-05:00,0.1236805929763694
2026-03-30T14:41:38.052-05:00,1774899697.829298,30.28872354425242,-97.73757598090032,173.7668,1.307029,0.9794532,-1,-1,59.56209945678711,22.04311341721518,-9999,135428.6834447917,0.7321319580078125,0.2881622314453125,-0.6073150634765625,135428.6495217917,-3.06313141435021,0.8733288375151609,-0.2938884242984712,0.1034491285681725,0.01211822591722012,-0.001855738926678896,0.001697182655334473,0.005505084991455078,0.007135748863220215,XArbitraryZVertical,-0.4128359007557143,-0.1489836576379458,0.8981406168140006,0.02671711004090076,0.7336085438728333,0.2896761000156403,-0.614740788936615,0,0,0,-1,-1,135415.506766125,unknown,2,2026-03-30T14:41:24.874-05:00,2026-03-30T10:54:16.334-05:00,3805,1.355992,0,0,2567.05,4,4,2026-03-30T14:40:59.141-05:00,796592497.8029202,0,0.8900032,99.59074,1,0.9,2026-03-30T14:37:50.703-05:00,72,1.2,2026-03-30T12:48:13.834-05:00,0.1236805929763694
2026-03-30T14:41:38.087-05:00,1774899697.829298,30.28872354425242,-97.73757598090032,173.7668,1.307029,0.9794532,-1,-1,59.56209945678711,22.04311341721518,-9999,135428.7173697917,0.7364349365234375,0.2822723388671875,-0.614044189453125,135428.7098327917,-3.068338590383707,0.8726196967418595,-0.2897348357547195,0.1109753474593163,0.01504050008952618,-0.000707815052010119,-0.002123713493347168,0.002204626798629761,0.003739535808563232,XArbitraryZVertical,-0.4130996686505156,-0.1460622841559218,0.8984560494755156,0.02812521917111481,0.7340877056121826,0.2856981158256531,-0.6160289645195007,0,0,0,-1,-1,135415.506766125,unknown,2,2026-03-30T14:41:24.874-05:00,2026-03-30T10:54:16.334-05:00,3805,1.355992,0,0,2567.05,4,4,2026-03-30T14:40:59.141-05:00,796592497.8029202,0,0.8900032,99.59074,1,0.9,2026-03-30T14:37:50.703-05:00,72,1.2,2026-03-30T12:48:13.834-05:00,0.1236805929763694
2026-03-30T14:41:38.122-05:00,1774899697.829298,30.28872354425242,-97.73757598090032,173.7668,1.307029,0.9794532,-1,-1,59.56209945678711,22.04311341721518,-9999,135428.7512957917,0.73651123046875,0.28033447265625,-0.6237945556640625,135428.7399877917,-3.071100153908627,0.8724127830356823,-0.2875409521901385,0.1161860078573227,0.02129955962300301,-9.402405703440309e-05,-0.001559019088745117,-0.002665519714355469,-0.004816591739654541,XArbitraryZVertical,-0.4133092742760517,-0.1445138490126497,0.8985859167404417,0.02888729808990107,0.7344385385513306,0.2835949957370758,-0.6165823936462402,0,0,0,-1,-1,135415.506766125,unknown,2,2026-03-30T14:41:24.874-05:00,2026-03-30T10:54:16.334-05:00,3805,1.355992,0,0,2567.05,4,4,2026-03-30T14:40:59.141-05:00,796592497.8029202,0,0.8900032,99.59074,1,0.9,2026-03-30T14:37:50.703-05:00,72,1.2,2026-03-30T12:48:13.834-05:00,0.1236805929763694
2026-03-30T14:41:38.157-05:00,1774899697.829298,30.28872354425242,-97.73757598090032,173.7668,1.307029,0.9794532,-1,-1,59.56209945678711,22.04311341721518,-9999,135428.7852207917,0.726287841796875,0.285888671875,-0.6354522705078125,135428.7701437917,-3.073896456470268,0.8723882799306447,-0.2852889290376995,0.1254069060087204,0.03284963220357895,-0.0004382862825877964,-0.001558184623718262,-0.001573354005813599,-0.008097350597381592,XArbitraryZVertical,-0.4136019462026238,-0.142928951168775,0.8986793926434807,0.02966633479847565,0.7349107265472412,0.2814347147941589,-0.6170094609260559,0,0,0,-1,-1,135415.506766125,unknown,2,2026-03-30T14:41:24.874-05:00,2026-03-30T10:54:16.334-05:00,3805,1.355992,0,0,2567.05,4,4,2026-03-30T14:40:59.141-05:00,796592497.8029202,0,0.8900032,99.59074,1,0.9,2026-03-30T14:37:50.703-05:00,72,1.2,2026-03-30T12:48:13.834-05:00,0.1236805929763694
2026-03-30T14:41:38.188-05:00,1774899697.829298,30.28872354425242,-97.73757598090032,173.7668,1.307029,0.9794532,-1,-1,59.56209945678711,22.04311341721518,-9999,135428.8191447917,0.7361907958984375,0.29022216796875,-0.644805908203125,135428.8002987917,-3.077092940438255,0.8729473716021788,-0.2826497581876644,0.1435835957527161,0.05922731757164001,0.003821921767666936,-0.005399227142333984,0.00761297345161438,-0.02153730392456055,XArbitraryZVertical,-0.4141981176216816,-0.1410783562949092,0.8986664372706969,0.03058496790718888,0.7358221411705017,0.2789012491703033,-0.617073655128479,0,0,0,-1,-1,135415.506766125,unknown,2,2026-03-30T14:41:24.874-05:00,2026-03-30T10:54:16.334-05:00,3805,1.355992,0,0,2567.05,4,4,2026-03-30T14:40:59.141-05:00,796592497.8029202,0,0.8900032,99.59074,1,0.9,2026-03-30T14:37:50.703-05:00,72,1.2,2026-03-30T12:48:13.834-05:00,0.1236805929763694
2026-03-30T14:41:38.222-05:00,1774899697.829298,30.28872354425242,-97.73757598090032,173.7668,1.307029,0.9794532,-1,-1,59.56209945678711,22.04311341721518,-9999,135428.8530697917,0.729339599609375,0.2848968505859375,-0.6434478759765625,135428.8304537917,-3.080815415716321,0.8739231781053278,-0.2792252906092049,0.1835231781005859,0.08414386957883835,0.01822771318256855,-0.004730224609375,0.01805952191352844,-0.03003853559494019,XArbitraryZVertical,-0.4150464481255957,-0.138759154911536,0.898600892028572,0.0316022777593089,0.7371519804000854,0.275611013174057,-0.6169646978378296,0,0,0,-1,-1,135415.506766125,unknown,2,2026-03-30T14:41:24.874-05:00,2026-03-30T10:54:16.334-05:00,3805,1.355992,0,0,2567.05,4,4,2026-03-30T14:40:59.141-05:00,796592497.8029202,0,0.8900032,99.59074,1,0.9,2026-03-30T14:37:50.703-05:00,72,1.2,2026-03-30T12:48:13.834-05:00,0.1236805929763694
2026-03-30T14:41:38.258-05:00,1774899697.829298,30.28872354425242,-97.73757598090032,173.7668,1.307029,0.9794532,-1,-1,59.56209945678711,22.04311341721518,-9999,135428.8869947917,0.740020751953125,0.269989013671875,-0.6327362060546875,135428.8606097917,-3.08505105434244,0.8755849417153164,-0.2750574679551808,0.185155838727951,0.09919372946023941,0.01946296729147434,-0.008094966411590576,0.01146349310874939,-0.02710068225860596,XArbitraryZVertical,-0.4162606281054541,-0.1359868742438211,0.8984224302217384,0.03273781761088845,0.7390519380569458,0.2716022431850433,-0.6164693236351013,0,0,0,-1,-1,135415.506766125,unknown,2,2026-03-30T14:41:24.874-05:00,2026-03-30T10:54:16.334-05:00,3805,1.355992,0,0,2567.05,4,4,2026-03-30T14:40:59.141-05:00,796592497.8029202,0,0.8900032,99.59074,1,0.9,2026-03-30T14:37:50.703-05:00,72,1.2,2026-03-30T12:48:13.834-05:00,0.1236805929763694
2026-03-30T14:41:38.292-05:00,1774899697.829298,30.28872354425242,-97.73757598090032,173.7668,1.307029,0.9794532,-1,-1,59.56209945678711,22.04311341721518,-9999,135428.9209207917,0.749176025390625,0.2501220703125,-0.6184539794921875,135428.8907647917,-3.088782179979621,0.8777119515924542,-0.2712917476040128,0.1652438789606094,0.1134466379880905,0.02075915597379208,-0.0001000165939331055,0.001341402530670166,-0.01690131425857544,XArbitraryZVertical,-0.417622248417186,-0.1334883039879102,0.898127396803521,0.03375916480902002,0.7411430478096008,0.2679761648178101,-0.6155450344085693,0,0,0,-1,-1,135415.506766125,unknown,2,2026-03-30T14:41:24.874-05:00,2026-03-30T10:54:16.334-05:00,3805,1.355992,0,0,2567.05,4,4,2026-03-30T14:40:59.141-05:00,796592497.8029202,0,0.8900032,99.59074,1,0.9,2026-03-30T14:37:50.703-05:00,72,1.2,2026-03-30T12:48:13.834-05:00,0.1236805929763694
2026-03-30T14:41:38.323-05:00,1774899697.829298,30.28872354425242,-97.73757598090032,173.7668,1.307029,0.9794532,-1,-1,59.56209945678711,22.04311341721518,-9999,135428.9548437917,0.757293701171875,0.23602294921875,-0.605438232421875,135428.9209207917,-3.091919227625357,0.880634898485138,-0.2679242417309705,0.1107093989849091,0.1337343156337738,0.01755094900727272,0.002844393253326416,-0.00467488169670105,-0.006093800067901611,XArbitraryZVertical,-0.4192771037595666,-0.1312750848261158,0.8976486156747281,0.03464595548097978,0.7436307072639465,0.264730304479599,-0.6139471530914307,0,0,0,-1,-1,135415.506766125,unknown,2,2026-03-30T14:41:24.874-05:00,2026-03-30T10:54:16.334-05:00,3805,1.355992,0,0,2567.05,4,4,2026-03-30T14:40:59.141-05:00,796592497.8029202,0,0.8900032,99.59074,1,0.9,2026-03-30T14:37:50.703-05:00,72,1.2,2026-03-30T12:48:13.834-05:00,0.1236805929763694
2026-03-30T14:41:38.358-05:00,1774899697.829298,30.28872354425242,-97.73757598090032,173.7668,1.307029,0.9794532,-1,-1,59.56209945678711,22.04311341721518,-9999,135428.9887697917,0.7541046142578125,0.235626220703125,-0.563995361328125,135428.9812317917,-3.092678872085445,0.8875244006469807,-0.2658126800745983,-0.04165910929441452,0.0994647890329361,0.02226880192756653,0.008561134338378906,-0.02410715818405151,0.0321955680847168,XArbitraryZVertical,-0.4224999640681412,-0.130051237118775,0.8963014444510365,0.03498612091099453,0.7482746839523315,0.2626934945583344,-0.6091609001159668,0,0,0,-1,-1,135415.506766125,unknown,2,2026-03-30T14:41:24.874-05:00,2026-03-30T10:54:16.334-05:00,3805,1.355992,0,0,2567.05,4,4,2026-03-30T14:40:59.141-05:00,796592497.8029202,0,0.8900032,99.59074,1,0.9,2026-03-30T14:37:50.703-05:00,72,1.2,2026-03-30T12:48:13.834-05:00,0.1236805929763694
2026-03-30T14:41:38.393-05:00,1774899697.829298,30.28872354425242,-97.73757598090032,173.7668,1.307029,0.9794532,-1,-1,59.56209945678711,22.04311341721518,-9999,135429.0226947917,0.7603759765625,0.2355194091796875,-0.550079345703125,135429.0113867917,-3.090219322683671,0.8909427811194,-0.267157663524502,-0.1322258859872818,0.08222506940364838,0.007718722801655531,0.003783226013183594,-0.0327136218547821,0.0538407564163208,XArbitraryZVertical,-0.4238171791809195,-0.1311129079966321,0.8955474313756462,0.03439613498359561,0.7500771880149841,0.2639909982681274,-0.6063768267631531,0,0,0,-1,-1,135415.506766125,unknown,2,2026-03-30T14:41:24.874-05:00,2026-03-30T10:54:16.334-05:00,3805,1.355992,0,0,2567.05,4,4,2026-03-30T14:40:59.141-05:00,796592497.8029202,0,0.8900032,99.59074,1,0.9,2026-03-30T14:37:50.703-05:00,72,1.2,2026-03-30T12:48:13.834-05:00,0.1236805929763694
2026-03-30T14:41:38.428-05:00,1774899697.829298,30.28872354425242,-97.73757598090032,173.7668,1.307029,0.9794532,-1,-1,59.56209945678711,22.04311341721518,-9999,135429.0566197917,0.756439208984375,0.2577362060546875,-0.569580078125,135429.0415427917,-3.086094078143358,0.8939485331811845,-0.2703149849104111,-0.1900539547204971,0.04303070157766342,0.001680338638834655,0.01599937677383423,-0.02179580926895142,0.04916632175445557,XArbitraryZVertical,-0.4247608160145698,-0.1333453911017148,0.8948071810957003,0.0334284244485043,0.751242995262146,0.2670350074768066,-0.6035944819450378,0,0,0,-1,-1,135415.506766125,unknown,2,2026-03-30T14:41:24.874-05:00,2026-03-30T10:54:16.334-05:00,3805,1.355992,0,0,2567.05,4,4,2026-03-30T14:40:59.141-05:00,796592497.8029202,0,0.8900032,99.59074,1,0.9,2026-03-30T14:37:50.703-05:00,72,1.2,2026-03-30T12:48:13.834-05:00,0.1236805929763694
2026-03-30T14:41:38.459-05:00,1774899697.829298,30.28872354425242,-97.73757598090032,173.7668,1.307029,0.9794532,-1,-1,59.56209945678711,22.04311341721518,-9999,135429.0905437917,0.7294464111328125,0.2862396240234375,-0.5699310302734375,135429.0716977917,-3.081116005962701,0.8961113206591383,-0.2740726487550171,-0.1989607512950897,0.01374606043100357,0.005407863762229681,0.002865612506866455,-0.004007041454315186,0.04077506065368652,XArbitraryZVertical,-0.4252339905063721,-0.1360420170610326,0.8942227631441232,0.03215944389076938,0.7517577409744263,0.2706543207168579,-0.6013372540473938,0,0,0,-1,-1,135415.506766125,unknown,2,2026-03-30T14:41:24.874-05:00,2026-03-30T10:54:16.334-05:00,3805,1.355992,0,0,2567.05,4,4,2026-03-30T14:40:59.141-05:00,796592497.8029202,0,0.8900032,99.59074,1,0.9,2026-03-30T14:37:50.703-05:00,72,1.2,2026-03-30T12:48:13.834-05:00,0.1236805929763694
2026-03-30T14:41:38.494-05:00,1774899697.829298,30.28872354425242,-97.73757598090032,173.7668,1.307029,0.9794532,-1,-1,59.56209945678711,22.04311341721518,-9999,135429.1244687917,0.721099853515625,0.2902679443359375,-0.588043212890625,135429.1018537917,-3.077043667958885,0.897502937337243,-0.2768876800522834,-0.12943996489048,0.003451723139733076,0.00872892327606678,-0.02431893348693848,0.01933082938194275,0.03143835067749023,XArbitraryZVertical,-0.4254539126898093,-0.1381392243189251,0.8938360010509517,0.03104399609840047,0.7519952654838562,0.2733632028102875,-0.5998130440711975,0,0,0,-1,-1,135415.506766125,unknown,2,2026-03-30T14:41:24.874-05:00,2026-03-30T10:54:16.334-05:00,3805,1.355992,0,0,2567.05,4,4,2026-03-30T14:40:59.141-05:00,796592497.8029202,0,0.8900032,99.59074,1,0.9,2026-03-30T14:37:50.703-05:00,72,1.2,2026-03-30T12:48:13.834-05:00,0.1236805929763694
2026-03-30T14:41:38.529-05:00,1774899697.829298,30.28872354425242,-97.73757598090032,173.7668,1.307029,0.9794532,-1,-1,59.56209945678711,22.04311341721518,-9999,135429.1583947917,0.747314453125,0.2583465576171875,-0.6118011474609375,135429.1320087917,-3.074467400187627,0.8984026074489583,-0.2788309428667811,-0.09051211178302765,0.009385528042912483,-0.01516926568001509,-0.02932405471801758,0.01444083452224731,0.007739722728729248,XArbitraryZVertical,-0.4255902028605942,-0.1395380515988951,0.893576669905341,0.0303766817682413,0.7521175742149353,0.2752319276332855,-0.598804235458374,0,0,0,-1,-1,135415.506766125,unknown,2,2026-03-30T14:41:24.874-05:00,2026-03-30T10:54:16.334-05:00,3805,1.355992,0,0,2567.05,4,4,2026-03-30T14:40:59.141-05:00,796592497.8029202,0,0.8900032,99.59074,1,0.9,2026-03-30T14:37:50.703-05:00,72,1.2,2026-03-30T12:48:13.834-05:00,0.1236805929763694
2026-03-30T14:41:38.564-05:00,1774899697.829298,30.28872354425242,-97.73757598090032,173.7668,1.307029,0.9794532,-1,-1,59.56209945678711,22.04311341721518,-9999,135429.1923197917,0.7461700439453125,0.278778076171875,-0.6226654052734375,135429.1621647917,-3.072057002434645,0.8994765294327449,-0.2818824058605912,-0.1702770590782166,0.01841235533356667,-0.04153262451291084,-0.006325840950012207,-0.0189022421836853,-0.01465070247650146,XArbitraryZVertical,-0.425761573881637,-0.1413916082567935,0.8932150893541519,0.0300379600013989,0.7520990967750549,0.278164267539978,-0.5974709987640381,0,0,0,-1,-1,135415.506766125,unknown,2,2026-03-30T14:41:24.874-05:00,2026-03-30T10:54:16.334-05:00,3805,1.355992,0,0,2567.05,4,4,2026-03-30T14:40:59.141-05:00,796592497.8029202,0,0.8900032,99.59074,1,0.9,2026-03-30T14:37:50.703-05:00,72,1.2,2026-03-30T12:48:13.834-05:00,0.1236805929763694
2026-03-30T14:41:38.594-05:00,1774899697.829298,30.28872354425242,-97.73757598090032,173.7668,1.307029,0.9794532,-1,-1,59.56209945678711,22.04311341721518,-9999,135429.2262437917,0.7445068359375,0.2835540771484375,-0.5893707275390625,135429.1923197917,-3.068778249417334,0.9011651857449878,-0.2859219784077666,-0.1418056786060333,0.02776927314698696,-0.03531120344996452,-0.005927801132202148,-0.006422668695449829,-0.028617262840271,XArbitraryZVertical,-0.426093370686343,-0.1438594095523865,0.8926782480813216,0.02957308110105629,0.7522198557853699,0.2820421159267426,-0.5954978466033936,0,0,0,-1,-1,135415.506766125,unknown,2,2026-03-30T14:41:24.874-05:00,2026-03-30T10:54:16.334-05:00,3805,1.355992,0,0,2567.05,4,4,2026-03-30T14:40:59.141-05:00,796592497.8029202,0,0.8900032,99.59074,1,0.9,2026-03-30T14:37:50.703-05:00,72,1.2,2026-03-30T12:48:13.834-05:00,0.1236805929763694
2026-03-30T14:41:38.630-05:00,1774899697.829298,30.28872354425242,-97.73757598090032,173.7668,1.307029,0.9794532,-1,-1,59.56209945678711,22.04311341721518,-9999,135429.2601687917,0.770294189453125,0.2981414794921875,-0.576080322265625,135429.2526307917,-3.065948536837499,0.9045379447085048,-0.2902677883405125,-0.04428933188319206,0.07189233601093292,-0.02685179933905602,0.003216385841369629,0.001877039670944214,0.0118718147277832,XArbitraryZVertical,-0.427184936452023,-0.1463418416992797,0.8917547705359742,0.02950332315875245,0.7532532811164856,0.2862088084220886,-0.5921941995620728,0,0,0,-1,-1,135415.506766125,unknown,2,2026-03-30T14:41:24.874-05:00,2026-03-30T10:54:16.334-05:00,3805,1.355992,0,0,2567.05,4,4,2026-03-30T14:40:59.141-05:00,796592497.8029202,0,0.8900032,99.59074,1,0.9,2026-03-30T14:37:50.703-05:00,72,1.2,2026-03-30T12:48:13.834-05:00,0.1236805929763694
2026-03-30T14:41:38.664-05:00,1774899697.829298,30.28872354425242,-97.73757598090032,173.7668,1.307029,0.9794532,-1,-1,59.56209945678711,22.04311341721518,-9999,135429.2940937917,0.8028717041015625,0.3675994873046875,-0.6042022705078125,135429.2827867917,-3.065785496596687,0.9073392384726109,-0.290899783971109,0.01206763740628958,0.1016565561294556,0.005942127667367458,0.02900105714797974,0.05276995897293091,-0.008067488670349121,XArbitraryZVertical,-0.4283909201560778,-0.1466153751733089,0.8911221513738872,0.02977409582570931,0.754766583442688,0.2868143320083618,-0.5899702906608582,0,0,0,-1,-1,135415.506766125,unknown,2,2026-03-30T14:41:24.874-05:00,2026-03-30T10:54:16.334-05:00,3805,1.355992,0,0,2567.05,4,4,2026-03-30T14:40:59.141-05:00,796592497.8029202,0,0.8900032,99.59074,1,0.9,2026-03-30T14:37:50.703-05:00,72,1.2,2026-03-30T12:48:13.834-05:00,0.1236805929763694
2026-03-30T14:41:38.700-05:00,1774899697.829298,30.28872354425242,-97.73757598090032,173.7668,1.307029,0.9794532,-1,-1,59.56209945678711,22.04311341721518,-9999,135429.3280197917,0.79095458984375,0.384857177734375,-0.6309814453125,135429.3129417917,-3.066470870758259,0.9111211100319255,-0.2892326325798833,0.1031226441264153,0.1730384677648544,0.05374298989772797,0.03172379732131958,0.09388774633407593,-0.03642129898071289,XArbitraryZVertical,-0.4302061803712994,-0.1456732296251706,0.8903946650373712,0.02998967011379416,0.7573692202568054,0.2852168083190918,-0.5874038934707642,0,0,0,-1,-1,135415.506766125,unknown,2,2026-03-30T14:41:24.874-05:00,2026-03-30T10:54:16.334-05:00,3805,1.355992,0,0,2567.05,4,4,2026-03-30T14:40:59.141-05:00,796592497.8029202,0,0.8900032,99.59074,1,0.9,2026-03-30T14:37:50.703-05:00,72,1.2,2026-03-30T12:48:13.834-05:00,0.1236805929763694
2026-03-30T14:41:38.731-05:00,1774899697.829298,30.28872354425242,-97.73757598090032,173.7668,1.307029,0.9794532,-1,-1,59.56209945678711,22.04311341721518,-9999,135429.361942625,0.828643798828125,0.3319244384765625,-0.664154052734375,135429.343097625,-3.068895166424811,0.9175001208270848,-0.2850272119500202,0.1931934356689453,0.3216063976287842,0.0710427388548851,0.01769280433654785,0.08952862024307251,-0.05642491579055786,XArbitraryZVertical,-0.4334210157876149,-0.1431919875996338,0.8892163708015082,0.03060101541859554,0.7620464563369751,0.2811835706233978,-0.5832845568656921,0,0,0,-1,-1,135415.506766125,unknown,2,2026-03-30T14:41:24.874-05:00,2026-03-30T10:54:16.334-05:00,3805,1.355992,0,0,2567.05,4,4,2026-03-30T14:40:59.141-05:00,796592497.8029202,0,0.8900032,99.59074,1,0.9,2026-03-30T14:37:50.703-05:00,72,1.2,2026-03-30T12:48:13.834-05:00,0.1236805929763694
2026-03-30T14:41:38.765-05:00,1774899697.829298,30.28872354425242,-97.73757598090032,173.7668,1.307029,0.9794532,-1,-1,59.56209945678711,22.04311341721518,-9999,135429.395868625,0.88922119140625,0.32794189453125,-0.6933441162109375,135429.373252625,-3.073002280841432,0.9281003103053667,-0.2792854133213976,0.2190654277801514,0.4849280416965485,0.05852741003036499,0.07997524738311768,0.0392114520072937,-0.08925777673721313,XArbitraryZVertical,-0.4386883601377422,-0.1395936721569325,0.8871575732907081,0.03189696413062304,0.7694661617279053,0.2756688296794891,-0.5761322379112244,0,0,0,-1,-1,135415.506766125,unknown,2,2026-03-30T14:41:24.874-05:00,2026-03-30T10:54:16.334-05:00,3805,1.355992,0,0,2567.05,4,4,2026-03-30T14:40:59.141-05:00,796592497.8029202,0,0.8900032,99.59074,1,0.9,2026-03-30T14:37:50.703-05:00,72,1.2,2026-03-30T12:48:13.834-05:00,0.1236805929763694
2026-03-30T14:41:38.801-05:00,1774899697.829298,30.28872354425242,-97.73757598090032,173.7668,1.307029,0.9794532,-1,-1,59.56209945678711,22.04311341721518,-9999,135429.429793625,1.010894775390625,0.23046875,-0.4615478515625,135429.403407625,-3.079045459265886,0.9452506769293193,-0.2724310975085513,0.393228143453598,0.7467300295829773,0.1087894812226295,0.1105799674987793,0.06767246127128601,-0.1237689256668091,XArbitraryZVertical,-0.4470074865387731,-0.1349516172026458,0.8836302368959981,0.03420413432413102,0.7807468771934509,0.2690736651420593,-0.5639447569847107,0,0,0,-1,-1,135415.506766125,unknown,2,2026-03-30T14:41:24.874-05:00,2026-03-30T10:54:16.334-05:00,3805,1.355992,0,0,2567.05,4,4,2026-03-30T14:40:59.141-05:00,796592497.8029202,0,0.8900032,99.59074,1,0.9,2026-03-30T14:37:50.703-05:00,72,1.2,2026-03-30T12:48:13.834-05:00,0.1236805929763694
2026-03-30T14:41:38.835-05:00,1774899697.829298,30.28872354425242,-97.73757598090032,173.7668,1.307029,0.9794532,-1,-1,59.56209945678711,22.04311341721518,-9999,135429.463718625,0.9283905029296875,0.1956329345703125,-0.2884674072265625,135429.433563625,-3.08418713251564,0.9653362624224183,-0.2658555300807783,0.002341440180316567,0.6279593110084534,0.01252518221735954,0.2176633477210999,-0.02347710728645325,0.07464277744293213,XArbitraryZVertical,-0.4564909162884105,-0.1305501391032674,0.879349386972869,0.03629477291055019,0.7933534383773804,0.2627348303794861,-0.5491454005241394,0,0,0,-1,-1,135415.506766125,unknown,2,2026-03-30T14:41:24.874-05:00,2026-03-30T10:54:16.334-05:00,3805,1.355992,0,0,2567.05,4,4,2026-03-30T14:40:59.141-05:00,796592497.8029202,0,0.8900032,99.59074,1,0.9,2026-03-30T14:37:50.703-05:00,72,1.2,2026-03-30T12:48:13.834-05:00,0.1236805929763694
2026-03-30T14:41:38.866-05:00,1774899697.829298,30.28872354425242,-97.73757598090032,173.7668,1.307029,0.9794532,-1,-1,59.56209945678711,22.04311341721518,-9999,135429.497642625,0.829010009765625,0.4500274658203125,-0.423431396484375,135429.463718625,-3.076023685640485,0.984382678450861,-0.2732641580864453,-0.6031562089920044,0.5738308429718018,-0.08740647882223129,0.1512527465820312,-0.1123442351818085,0.2449109554290771,XArbitraryZVertical,-0.4639678957907468,-0.1353204128998234,0.8747265934392358,0.03571279758403875,0.802024781703949,0.2698759138584137,-0.5328443646430969,0,0,0,-1,-1,135415.506766125,unknown,2,2026-03-30T14:41:24.874-05:00,2026-03-30T10:54:16.334-05:00,3805,1.355992,0,0,2567.05,4,4,2026-03-30T14:40:59.141-05:00,796592497.8029202,0,0.8900032,99.59074,1,0.9,2026-03-30T14:37:50.703-05:00,72,1.2,2026-03-30T12:48:13.834-05:00,0.1236805929763694
2026-03-30T14:41:38.901-05:00,1774899698.829288,30.28872969301801,-97.73760576347054,174.2649,1.434168,0.5199412,235.6245601755418,18.82821216417847,3,19.14986562949547,-9999,135429.531567625,0.6977691650390625,0.460845947265625,-0.4613800048828125,135429.524029625,-3.05894479013049,1.037275109516084,-0.2894873352454505,-0.1775368899106979,1.159607887268066,-0.04092965647578239,-0.1186823844909668,0.2029270529747009,0.01952660083770752,XArbitraryZVertical,-0.4849198132434503,-0.1454279559830392,0.8616334628496161,0.03593351118887746,0.825194776058197,0.2854609191417694,-0.4874069690704346,0,0,0,-1,-1,135415.506766125,unknown,2,2026-03-30T14:41:24.874-05:00,2026-03-30T10:54:16.334-05:00,3805,1.355992,0,0,2567.05,4,4,2026-03-30T14:40:59.141-05:00,796592497.8029202,0,0.8900032,99.59074,1,0.9,2026-03-30T14:37:50.703-05:00,72,1.2,2026-03-30T12:48:13.834-05:00,0.1236805929763694
2026-03-30T14:41:38.936-05:00,1774899698.829288,30.28872969301801,-97.73760576347054,174.2649,1.434168,0.5199412,235.6245601755418,18.82821216417847,3,19.14986562949547,-9999,135429.565493625,0.7285919189453125,0.4326171875,-0.3943328857421875,135429.554185625,-3.057374560787582,1.076637554543257,-0.2919708225241964,-0.02334070950746536,1.399260759353638,-0.05927727371454239,-0.1200718283653259,0.1360031068325043,0.04276520013809204,XArbitraryZVertical,-0.5015324832875938,-0.1461365958289461,0.851825924701216,0.03875553100007742,0.8431095480918884,0.2878401875495911,-0.4542185366153717,0,0,0,-1,-1,135415.506766125,unknown,2,2026-03-30T14:41:24.874-05:00,2026-03-30T10:54:16.334-05:00,3805,1.355992,0,0,2567.05,4,4,2026-03-30T14:40:59.141-05:00,796592497.8029202,0,0.8900032,99.59074,1,0.9,2026-03-30T14:37:50.703-05:00,72,1.2,2026-03-30T12:48:13.834-05:00,0.1236805929763694
2026-03-30T14:41:38.971-05:00,1774899698.829288,30.28872969301801,-97.73760576347054,174.2649,1.434168,0.5199412,235.6245601755418,18.82821216417847,3,19.14986562949547,-9999,135429.599418625,0.7718353271484375,0.441253662109375,-0.3495025634765625,135429.584340625,-3.060897485340324,1.121518692198945,-0.2910418577947718,0.2693278193473816,1.650303959846497,0.004013014025986195,-0.1412766575813293,0.1773439347743988,0.000263214111328125,XArbitraryZVertical,-0.5208266269177722,-0.1439256651237666,0.8403295635896716,0.04325858023075161,0.8628799915313721,0.286950409412384,-0.4160500466823578,0,0,0,-1,-1,135415.506766125,unknown,2,2026-03-30T14:41:24.874-05:00,2026-03-30T10:54:16.334-05:00,3805,1.355992,0,0,2567.05,4,4,2026-03-30T14:40:59.141-05:00,796592497.8029202,0,0.8900032,99.59074,1,0.9,2026-03-30T14:37:50.703-05:00,72,1.2,2026-03-30T12:48:13.834-05:00,0.1236805929763694
2026-03-30T14:41:39.002-05:00,1774899698.829288,30.28872969301801,-97.73760576347054,174.2649,1.434168,0.5199412,235.6245601755418,18.82821216417847,3,19.14986562949547,-9999,135429.633342625,0.821746826171875,0.4685211181640625,-0.26043701171875,135429.614496625,-3.069502555404814,1.170640006367125,-0.2873800223045017,0.3055117130279541,1.772112488746643,-0.0159059464931488,-0.08405065536499023,0.1418217122554779,0.07138586044311523,XArbitraryZVertical,-0.5421160873526129,-0.1389856281684909,0.8272603198764162,0.04933083502079992,0.883229672908783,0.2834406793117523,-0.3735862970352173,0,0,0,-1,-1,135415.506766125,unknown,2,2026-03-30T14:41:24.874-05:00,2026-03-30T10:54:16.334-05:00,3805,1.355992,0,0,2567.05,4,4,2026-03-30T14:40:59.141-05:00,796592497.8029202,0,0.8900032,99.59074,1,0.9,2026-03-30T14:37:50.703-05:00,72,1.2,2026-03-30T12:48:13.834-05:00,0.1236805929763694
2026-03-30T14:41:39.037-05:00,1774899698.829288,30.28872969301801,-97.73760576347054,174.2649,1.434168,0.5199412,235.6245601755418,18.82821216417847,3,19.14986562949547,-9999,135429.667267625,0.8529052734375,0.5823211669921875,-0.194549560546875,135429.644651625,-3.078911501765899,1.223182937001499,-0.284453345268751,0.3546455800533295,1.869678139686584,-0.01588160917162895,-0.07092529535293579,0.2013922929763794,0.08784520626068115,XArbitraryZVertical,-0.5644579455087384,-0.1338070552812171,0.8126207659582594,0.05595104358558589,0.9024072289466858,0.2806327939033508,-0.3269658088684082,0,0,0,-1,-1,135415.506766125,unknown,2,2026-03-30T14:41:24.874-05:00,2026-03-30T10:54:16.334-05:00,3805,1.355992,0,0,2567.05,4,4,2026-03-30T14:40:59.141-05:00,796592497.8029202,0,0.8900032,99.59074,1,0.9,2026-03-30T14:37:50.703-05:00,72,1.2,2026-03-30T12:48:13.834-05:00,0.1236805929763694
2026-03-30T14:41:39.072-05:00,1774899698.829288,30.28872969301801,-97.73760576347054,174.2649,1.434168,0.5199412,235.6245601755418,18.82821216417847,3,19.14986562949547,-9999,135429.701192625,0.8885955810546875,0.43157958984375,-0.1012115478515625,135429.674807625,-3.095218670912481,1.275063472323952,-0.279894792783685,0.6978424191474915,1.836646795272827,-0.04159960523247719,-0.06062859296798706,0.3066921234130859,0.08443590998649597,XArbitraryZVertical,-0.5866373985763874,-0.1257253669375515,0.7974221879063111,0.06455618316694059,0.9193626642227173,0.2762545347213745,-0.2800993919372559,0,0,0,-1,-1,135415.506766125,unknown,2,2026-03-30T14:41:24.874-05:00,2026-03-30T10:54:16.334-05:00,3805,1.355992,0,0,2567.05,4,4,2026-03-30T14:40:59.141-05:00,796592497.8029202,0,0.8900032,99.59074,1,0.9,2026-03-30T14:37:50.703-05:00,72,1.2,2026-03-30T12:48:13.834-05:00,0.1236805929763694
2026-03-30T14:41:39.107-05:00,1774899698.829288,30.28872969301801,-97.73760576347054,174.2649,1.434168,0.5199412,235.6245601755418,18.82821216417847,3,19.14986562949547,-9999,135429.735118625,0.8736419677734375,0.5174560546875,-0.1522369384765625,135429.704962625,-3.117299105486479,1.321788461728539,-0.2774148949693603,0.7144045233726501,1.655878663063049,-0.1720424741506577,-0.04387390613555908,0.1595555543899536,0.1307121515274048,XArbitraryZVertical,-0.6065569520364269,-0.1165270451213103,0.7828346657162299,0.07536594670730323,0.9321032762527466,0.2738702893257141,-0.2370202243328094,0,0,0,-1,-1,135415.506766125,unknown,2,2026-03-30T14:41:24.874-05:00,2026-03-30T10:54:16.334-05:00,3805,1.355992,0,0,2567.05,4,4,2026-03-30T14:40:59.141-05:00,796592497.8029202,0,0.8900032,99.59074,1,0.9,2026-03-30T14:37:50.703-05:00,72,1.2,2026-03-30T12:48:13.834-05:00,0.1236805929763694
2026-03-30T14:41:39.137-05:00,1774899698.829288,30.28872969301801,-97.73760576347054,174.2649,1.434168,0.5199412,235.6245601755418,18.82821216417847,3,19.14986562949547,-9999,135429.769041625,0.8814697265625,0.530517578125,-0.15185546875,135429.735118625,3.137162437497417,1.362000202036853,-0.2772252655677664,1.036539196968079,1.538614869117737,-0.2248227894306183,-0.06908762454986572,0.2490476071834564,0.04867208003997803,XArbitraryZVertical,-0.6237681822487399,-0.1059681949213468,0.769296999112727,0.08869151149315418,0.9409289956092834,0.2736879289150238,-0.1993680000305176,0,0,0,-1,-1,135415.506766125,unknown,2,2026-03-30T14:41:24.874-05:00,2026-03-30T10:54:16.334-05:00,3805,1.355992,0,0,2567.05,4,4,2026-03-30T14:40:59.141-05:00,796592497.8029202,0,0.8900032,99.59074,1,0.9,2026-03-30T14:37:50.703-05:00,72,1.2,2026-03-30T12:48:13.834-05:00,0.1236805929763694
2026-03-30T14:41:39.173-05:00,1774899698.829288,30.28872969301801,-97.73760576347054,174.2649,1.434168,0.5199412,235.6245601755418,18.82821216417847,3,19.14986562949547,-9999,135429.802967625,0.8179168701171875,0.4882049560546875,-0.116668701171875,135429.795429625,3.045702711853143,1.419407367260984,-0.2761412682391973,1.918954253196716,1.135156989097595,-0.264763206243515,-0.1233059763908386,0.2602527141571045,0.008821487426757812,XArbitraryZVertical,-0.6496698690223413,-0.07334953684549694,0.7461745540528534,0.1255884235008091,0.9511105418205261,0.2726451456546783,-0.1450978070497513,0,0,0,-1,-1,135415.506766125,unknown,2,2026-03-30T14:41:24.874-05:00,2026-03-30T10:54:16.334-05:00,3805,1.355992,0,0,2567.05,4,4,2026-03-30T14:40:59.141-05:00,796592497.8029202,0,0.8900032,99.59074,1,0.9,2026-03-30T14:37:50.703-05:00,72,1.2,2026-03-30T12:48:13.834-05:00,0.1236805929763694
2026-03-30T14:41:39.207-05:00,1774899698.829288,30.28872969301801,-97.73760576347054,174.2649,1.434168,0.5199412,235.6245601755418,18.82821216417847,3,19.14986562949547,-9999,135429.836892625,0.7526702880859375,0.3743896484375,-0.13201904296875,135429.825584625,2.980243549665107,1.432570424979836,-0.2760125376596841,2.225288867950439,0.9433936476707458,-0.3135921657085419,-0.1858676671981812,0.1327062845230103,0.01085144281387329,XArbitraryZVertical,-0.6565912617998856,-0.05101428251475072,0.7373698717634765,0.1502369212884673,0.9529727697372437,0.2725212872028351,-0.1325709223747253,0,0,0,-1,-1,135415.506766125,unknown,2,2026-03-30T14:41:24.874-05:00,2026-03-30T10:54:16.334-05:00,3805,1.355992,0,0,2567.05,4,4,2026-03-30T14:40:59.141-05:00,796592497.8029202,0,0.8900032,99.59074,1,0.9,2026-03-30T14:37:50.703-05:00,72,1.2,2026-03-30T12:48:13.834-05:00,0.1236805929763694
2026-03-30T14:41:39.251-05:00,1774899698.829288,30.28872969301801,-97.73760576347054,174.2649,1.434168,0.5199412,235.6245601755418,18.82821216417847,3,19.14986562949547,-9999,135429.870817625,0.7828521728515625,0.34393310546875,-0.087493896484375,135429.855740625,2.901431185995292,1.437266095832018,-0.2744442035632195,2.816372632980347,0.8003274202346802,-0.237180233001709,-0.1882601976394653,0.1107170581817627,-0.0165477991104126,XArbitraryZVertical,-0.6598057304685528,-0.02409794551218476,0.7294732789244109,0.1787301602569337,0.9540072679519653,0.2710119783878326,-0.1281513720750809,0,0,0,-1,-1,135415.506766125,unknown,2,2026-03-30T14:41:24.874-05:00,2026-03-30T10:54:16.334-05:00,3805,1.355992,0,0,2567.05,4,4,2026-03-30T14:40:59.141-05:00,796592497.8029202,0,0.8900032,99.59074,1,0.9,2026-03-30T14:37:50.703-05:00,72,1.2,2026-03-30T12:48:13.834-05:00,0.1236805929763694
2026-03-30T14:41:39.273-05:00,1774899698.829288,30.28872969301801,-97.73760576347054,174.2649,1.434168,0.5199412,235.6245601755418,18.82821216417847,3,19.14986562949547,-9999,135429.904741625,0.7610931396484375,0.25616455078125,-0.03692626953125,135429.885895625,2.801881303027097,1.433429513622917,-0.2661793004053612,3.595176219940186,0.7376262545585632,-0.05530667677521706,-0.1605286598205566,0.06413164734840393,0.06656092405319214,XArbitraryZVertical,-0.6586444077237635,0.01145277862665909,0.7218107570142954,0.2122394831569418,0.9556946754455566,0.2630472183227539,-0.1321127563714981,0,0,0,-1,-1,135415.506766125,unknown,2,2026-03-30T14:41:24.874-05:00,2026-03-30T10:54:16.334-05:00,3805,1.355992,0,0,2567.05,4,4,2026-03-30T14:40:59.141-05:00,796592497.8029202,0,0.8900032,99.59074,1,0.9,2026-03-30T14:37:50.703-05:00,72,1.2,2026-03-30T12:48:13.834-05:00,0.1236805929763694
2026-03-30T14:41:39.308-05:00,1774899698.829288,30.28872969301801,-97.73760576347054,174.2649,1.434168,0.5199412,235.6245601755418,18.82821216417847,3,19.14986562949547,-9999,135429.938666625,0.8138580322265625,0.022216796875,0.058441162109375,135429.916051625,2.678732178937876,1.426378315837092,-0.2474260168983046,4.339605331420898,0.8825573325157166,0.1750424355268478,-0.1886399388313293,-0.02145956456661224,0.1114879846572876,XArbitraryZVertical,-0.6533448639897149,0.0580830551417464,0.7119727352521352,0.2507223210695839,0.9594528675079346,0.2449091821908951,-0.1395336985588074,0,0,0,-1,-1,135415.506766125,unknown,2,2026-03-30T14:41:24.874-05:00,2026-03-30T10:54:16.334-05:00,3805,1.355992,0,0,2567.05,4,4,2026-03-30T14:40:59.141-05:00,796592497.8029202,0,0.8900032,99.59074,1,0.9,2026-03-30T14:37:50.703-05:00,72,1.2,2026-03-30T12:48:13.834-05:00,0.1236805929763694
2026-03-30T14:41:39.343-05:00,1774899698.829288,30.28872969301801,-97.73760576347054,174.2649,1.434168,0.5199412,235.6245601755418,18.82821216417847,3,19.14986562949547,-9999,135429.972592625,0.7973480224609375,-0.4163665771484375,0.1134796142578125,135429.946206625,2.540834829052072,1.424608810967777,-0.2187741394038881,4.663776397705078,1.172465801239014,0.3962238132953644,-0.1561970710754395,-0.2141493707895279,0.1985459476709366,XArbitraryZVertical,-0.6450312219320796,0.1133008740252107,0.6975365224730538,0.2907581274739262,0.9657519459724426,0.2170331478118896,-0.1421952694654465,0,0,0,-1,-1,135415.506766125,unknown,2,2026-03-30T14:41:24.874-05:00,2026-03-30T10:54:16.334-05:00,3805,1.355992,0,0,2567.05,4,4,2026-03-30T14:40:59.141-05:00,796592497.8029202,0,0.8900032,99.59074,1,0.9,2026-03-30T14:37:50.703-05:00,72,1.2,2026-03-30T12:48:13.834-05:00,0.1236805929763694
2026-03-30T14:41:39.378-05:00,1774899698.829288,30.28872969301801,-97.73760576347054,174.2649,1.434168,0.5199412,235.6245601755418,18.82821216417847,3,19.14986562949547,-9999,135430.006517625,1.2861328125,0.4807891845703125,-0.0447845458984375,135429.976362625,2.412295600852808,1.438068510923615,-0.1890173782040536,3.595120191574097,1.507852911949158,0.3545140027999878,-0.1781252026557922,-0.5896884202957153,0.244071364402771,XArbitraryZVertical,-0.6379273050535619,0.1675053526345189,0.6776651510526358,0.3252086421871141,0.97355055809021,0.1878938674926758,-0.1299814134836197,0,0,0,-1,-1,135415.506766125,unknown,2,2026-03-30T14:41:24.874-05:00,2026-03-30T10:54:16.334-05:00,3805,1.355992,0,0,2567.05,4,4,2026-03-30T14:40:59.141-05:00,796592497.8029202,0,0.8900032,99.59074,1,0.9,2026-03-30T14:37:50.703-05:00,72,1.2,2026-03-30T12:48:13.834-05:00,0.1236805929763694
2026-03-30T14:41:39.408-05:00,1774899698.829288,30.28872969301801,-97.73760576347054,174.2649,1.434168,0.5199412,235.6245601755418,18.82821216417847,3,19.14986562949547,-9999,135430.040441625,1.327255249023438,-0.962799072265625,-0.7799835205078125,135430.006517625,2.313260128376874,1.462035637711058,-0.1618279740740984,3.767568826675415,0.8739486932754517,0.4760681688785553,0.1780003905296326,0.106302872300148,0.1734275817871094,XArbitraryZVertical,-0.6333973991306415,0.2127055390857762,0.6576044023798565,0.34802381864877,0.9811030030250549,0.1611225605010986,-0.1071281731128693,0,0,0,-1,-1,135415.506766125,unknown,2,2026-03-30T14:41:24.874-05:00,2026-03-30T10:54:16.334-05:00,3805,1.355992,0,0,2567.05,4,4,2026-03-30T14:40:59.141-05:00,796592497.8029202,0,0.8900032,99.59074,1,0.9,2026-03-30T14:37:50.703-05:00,72,1.2,2026-03-30T12:48:13.834-05:00,0.1236805929763694
2026-03-30T14:41:39.444-05:00,1774899698.829288,30.28872969301801,-97.73760576347054,174.2649,1.434168,0.5199412,235.6245601755418,18.82821216417847,3,19.14986562949547,-9999,135430.074366625,1.298385620117188,0.113983154296875,-0.2499847412109375,135430.066828625,2.24526371655111,1.496895480913068,-0.1208298233638791,-0.6025271415710449,0.8784754872322083,0.4041712880134583,0.3257201313972473,-0.6963418126106262,-0.2127460241317749,XArbitraryZVertical,-0.631350104408699,0.2544590567284276,0.6413744228682999,0.3539581921057472,0.9899993538856506,0.1205360218882561,-0.07329526543617249,0,0,0,-1,-1,135415.506766125,unknown,2,2026-03-30T14:41:24.874-05:00,2026-03-30T10:54:16.334-05:00,3805,1.355992,0,0,2567.05,4,4,2026-03-30T14:40:59.141-05:00,796592497.8029202,0,0.8900032,99.59074,1,0.9,2026-03-30T14:37:50.703-05:00,72,1.2,2026-03-30T12:48:13.834-05:00,0.1236805929763694
2026-03-30T14:41:39.479-05:00,1774899698.829288,30.28872969301801,-97.73760576347054,174.2649,1.434168,0.5199412,235.6245601755418,18.82821216417847,3,19.14986562949547,-9999,135430.108291625,0.974212646484375,-0.1457977294921875,-0.0896148681640625,135430.096983625,2.253689759236195,1.531560073558895,-0.1046993777330895,-0.2651814520359039,1.166597247123718,0.4926455318927765,-0.2041162252426147,0.1086874902248383,-0.3294578790664673,XArbitraryZVertical,-0.6412546092202538,0.2632239261176519,0.6344957219261692,0.3419368073491171,0.993758499622345,0.1045081987977028,-0.03901138156652451,0,0,0,-1,-1,135415.506766125,unknown,2,2026-03-30T14:41:24.874-05:00,2026-03-30T10:54:16.334-05:00,3805,1.355992,0,0,2567.05,4,4,2026-03-30T14:40:59.141-05:00,796592497.8029202,0,0.8900032,99.59074,1,0.9,2026-03-30T14:37:50.703-05:00,72,1.2,2026-03-30T12:48:13.834-05:00,0.1236805929763694
2026-03-30T14:41:39.514-05:00,1774899698.829288,30.28872969301801,-97.73760576347054,174.2649,1.434168,0.5199412,235.6245601755418,18.82821216417847,3,19.14986562949547,-9999,135430.142217625,0.9502716064453125,0.034332275390625,0.0756072998046875,135430.127139625,2.266451830673391,1.568598751092436,-0.09016969075604588,-0.3901659250259399,1.234398126602173,0.5169573426246643,-0.04731142520904541,-0.1583917737007141,-0.01429086923599243,XArbitraryZVertical,-0.6526506467012166,0.2700977790826908,0.6270483977134758,0.328488382906069,0.9959350228309631,0.09004755318164825,-0.002188646234571934,0,0,0,-1,-1,135415.506766125,unknown,2,2026-03-30T14:41:24.874-05:00,2026-03-30T10:54:16.334-05:00,3805,1.355992,0,0,2567.05,4,4,2026-03-30T14:40:59.141-05:00,796592497.8029202,0,0.8900032,99.59074,1,0.9,2026-03-30T14:37:50.703-05:00,72,1.2,2026-03-30T12:48:13.834-05:00,0.1236805929763694
2026-03-30T14:41:39.545-05:00,1774899698.829288,30.28872969301801,-97.73760576347054,174.2649,1.434168,0.5199412,235.6245601755418,18.82821216417847,3,19.14986562949547,-9999,135430.176140625,0.9742431640625,0.20904541015625,0.302703857421875,135430.157294625,2.271817234727428,1.60748618001778,-0.0750864212602103,0.2617403268814087,1.311563968658447,0.5307774543762207,-0.007879018783569336,0.03458789736032486,0.1229981184005737,XArbitraryZVertical,-0.6634579814276605,0.2794863882232934,0.6175871974680084,0.3166970083541991,0.9965113401412964,0.07501588761806488,0.03657826781272888,0,0,0,-1,-1,135415.506766125,unknown,2,2026-03-30T14:41:24.874-05:00,2026-03-30T10:54:16.334-05:00,3805,1.355992,0,0,2567.05,4,4,2026-03-30T14:40:59.141-05:00,796592497.8029202,0,0.8900032,99.59074,1,0.9,2026-03-30T14:37:50.703-05:00,72,1.2,2026-03-30T12:48:13.834-05:00,0.1236805929763694
2026-03-30T14:41:39.579-05:00,1774899698.829288,30.28872969301801,-97.73760576347054,174.2649,1.434168,0.5199412,235.6245601755418,18.82821216417847,3,19.14986562949547,-9999,135430.210066625,1.036544799804688,-0.057342529296875,0.363677978515625,135430.187450625,2.254008533491107,1.643650235229853,-0.05849538133389149,0.5875021815299988,1.206136226654053,0.5262674689292908,-0.05290770530700684,0.04337502270936966,0.2623875141143799,XArbitraryZVertical,-0.6697095963749604,0.2963469977504979,0.6054691461795011,0.3115678479644467,0.9956414103507996,0.05846202746033669,0.07266497611999512,0,0,0,-1,-1,135415.506766125,unknown,2,2026-03-30T14:41:24.874-05:00,2026-03-30T10:54:16.334-05:00,3805,1.355992,0,0,2567.05,4,4,2026-03-30T14:40:59.141-05:00,796592497.8029202,0,0.8900032,99.59074,1,0.9,2026-03-30T14:37:50.703-05:00,72,1.2,2026-03-30T12:48:13.834-05:00,0.1236805929763694
2026-03-30T14:41:39.615-05:00,1774899698.829288,30.28872969301801,-97.73760576347054,174.2649,1.434168,0.5199412,235.6245601755418,18.82821216417847,3,19.14986562949547,-9999,135430.243991625,0.9796295166015625,-0.0655975341796875,0.38043212890625,135430.217605625,2.239856611375631,1.674478022981449,-0.04534841797914544,0.2663987278938293,0.9299613833427429,0.4190047383308411,0.0507194995880127,-0.1107016354799271,0.2615548372268677,XArbitraryZVertical,-0.6750116361662478,0.3099259690764815,0.5951176509924918,0.3068226410991349,0.9936072826385498,0.04533287510275841,0.1033896282315254,0,0,0,-1,-1,135415.506766125,unknown,2,2026-03-30T14:41:24.874-05:00,2026-03-30T10:54:16.334-05:00,3805,1.355992,0,0,2567.05,4,4,2026-03-30T14:40:59.141-05:00,796592497.8029202,0,0.8900032,99.59074,1,0.9,2026-03-30T14:37:50.703-05:00,72,1.2,2026-03-30T12:48:13.834-05:00,0.1236805929763694
2026-03-30T14:41:39.650-05:00,1774899698.829288,30.28872969301801,-97.73760576347054,174.2649,1.434168,0.5199412,235.6245601755418,18.82821216417847,3,19.14986562949547,-9999,135430.277916625,0.9769744873046875,-0.032470703125,0.275665283203125,135430.247761625,2.233363207088653,1.699438510020426,-0.03493286622910154,0.09064735472202301,0.7501601576805115,0.3293810784816742,-0.01119726896286011,-0.1028427332639694,0.2528177499771118,XArbitraryZVertical,-0.6799265519307134,0.3190683018617548,0.5874381258032182,0.3013498525715749,0.9911319017410278,0.03492576256394386,0.1282093971967697,0,0,0,-1,-1,135415.506766125,unknown,2,2026-03-30T14:41:24.874-05:00,2026-03-30T10:54:16.334-05:00,3805,1.355992,0,0,2567.05,4,4,2026-03-30T14:40:59.141-05:00,796592497.8029202,0,0.8900032,99.59074,1,0.9,2026-03-30T14:37:50.703-05:00,72,1.2,2026-03-30T12:48:13.834-05:00,0.1236805929763694
2026-03-30T14:41:39.680-05:00,1774899698.829288,30.28872969301801,-97.73760576347054,174.2649,1.434168,0.5199412,235.6245601755418,18.82821216417847,3,19.14986562949547,-9999,135430.311840625,0.993560791015625,0.0012359619140625,0.161041259765625,135430.277916625,2.233613495372021,1.719596843178676,-0.02624662438142176,-0.1371936202049255,0.6363455653190613,0.2457317113876343,0.006019890308380127,-0.07560589909553528,0.1532974094152451,XArbitraryZVertical,-0.6846555052747562,0.3245724940192746,0.5820745587490394,0.2951078245651146,0.9886088967323303,0.02624361030757427,0.1482009291648865,0,0,0,-1,-1,135415.506766125,unknown,2,2026-03-30T14:41:24.874-05:00,2026-03-30T10:54:16.334-05:00,3805,1.355992,0,0,2567.05,4,4,2026-03-30T14:40:59.141-05:00,796592497.8029202,0,0.8900032,99.59074,1,0.9,2026-03-30T14:37:50.703-05:00,72,1.2,2026-03-30T12:48:13.834-05:00,0.1236805929763694
2026-03-30T14:41:39.715-05:00,1774899698.829288,30.28872969301801,-97.73760576347054,174.2649,1.434168,0.5199412,235.6245601755418,18.82821216417847,3,19.14986562949547,-9999,135430.345765625,0.981170654296875,0.005828857421875,0.078887939453125,135430.338227625,2.234514089851898,1.75839847769351,-0.00990448850433933,0.02777322940528393,0.7093936204910278,0.2923153936862946,-0.02409309148788452,0.04017491638660431,-0.09897007048130035,XArbitraryZVertical,-0.6937352306622121,0.3346321409091955,0.5716126864078594,0.2828631610946017,0.9824059009552002,0.009904326871037483,0.1864944845438004,0,0,0,-1,-1,135415.506766125,unknown,2,2026-03-30T14:41:24.874-05:00,2026-03-30T10:54:16.334-05:00,3805,1.355992,0,0,2567.05,4,4,2026-03-30T14:40:59.141-05:00,796592497.8029202,0,0.8900032,99.59074,1,0.9,2026-03-30T14:37:50.703-05:00,72,1.2,2026-03-30T12:48:13.834-05:00,0.1236805929763694
2026-03-30T14:41:39.751-05:00,1774899698.829288,30.28872969301801,-97.73760576347054,174.2649,1.434168,0.5199412,235.6245601755418,18.82821216417847,3,19.14986562949547,-9999,135430.379691625,0.981536865234375,0.042205810546875,0.069580078125,135430.368383625,2.231746385729981,1.781345605356617,-0.00127104076506553,0.08129222691059113,0.815922737121582,0.3181334733963013,-0.009348571300506592,0.02324973233044147,-0.151257649064064,XArbitraryZVertical,-0.6985952331120052,0.341266974138967,0.5647105255631064,0.2767733923311229,0.9779154062271118,0.001271040411666036,0.2089968919754028,0,0,0,-1,-1,135415.506766125,unknown,2,2026-03-30T14:41:24.874-05:00,2026-03-30T10:54:16.334-05:00,3805,1.355992,0,0,2567.05,4,4,2026-03-30T14:40:59.141-05:00,796592497.8029202,0,0.8900032,99.59074,1,0.9,2026-03-30T14:37:50.703-05:00,72,1.2,2026-03-30T12:48:13.834-05:00,0.1236805929763694
2026-03-30T14:41:39.785-05:00,1774899698.829288,30.28872969301801,-97.73760576347054,174.2649,1.434168,0.5199412,235.6245601755418,18.82821216417847,3,19.14986562949547,-9999,135430.413616625,0.9727325439453125,0.0157318115234375,0.1260528564453125,135430.398538625,2.22622889967487,1.807609738327509,0.007512684372125501,0.1340471804141998,0.9275541305541992,0.332580953836441,0.0005016326904296875,0.02875274606049061,-0.1422533392906189,XArbitraryZVertical,-0.703791138164472,0.3492532495612466,0.5562559053877535,0.2707022941350913,0.9720632433891296,-0.007512613665312529,0.2345995903015137,0,0,0,-1,-1,135415.506766125,unknown,2,2026-03-30T14:41:24.874-05:00,2026-03-30T10:54:16.334-05:00,3805,1.355992,0,0,2567.05,4,4,2026-03-30T14:40:59.141-05:00,796592497.8029202,0,0.8900032,99.59074,1,0.9,2026-03-30T14:37:50.703-05:00,72,1.2,2026-03-30T12:48:13.834-05:00,0.1236805929763694
2026-03-30T14:41:39.816-05:00,1774899698.829288,30.28872969301801,-97.73760576347054,174.2649,1.434168,0.5199412,235.6245601755418,18.82821216417847,3,19.14986562949547,-9999,135430.447540625,0.99127197265625,0.0040130615234375,0.229583740234375,135430.428694625,2.219682016493108,1.836702926020286,0.01616114025565762,0.1192665919661522,0.9857159852981567,0.3254187107086182,0.016243577003479,0.02374395541846752,-0.1179133653640747,XArbitraryZVertical,-0.7094622201206887,0.35782433723919,0.5466016595947248,0.2642947755054908,0.9647286534309387,-0.01616043597459793,0.2627497911453247,0,0,0,-1,-1,135415.506766125,unknown,2,2026-03-30T14:41:24.874-05:00,2026-03-30T10:54:16.334-05:00,3805,1.355992,0,0,2567.05,4,4,2026-03-30T14:40:59.141-05:00,796592497.8029202,0,0.8900032,99.59074,1,0.9,2026-03-30T14:37:50.703-05:00,72,1.2,2026-03-30T12:48:13.834-05:00,0.1236805929763694
2026-03-30T14:41:39.851-05:00,1774899698.829288,30.28872969301801,-97.73760576347054,174.2649,1.434168,0.5199412,235.6245601755418,18.82821216417847,3,19.14986562949547,-9999,135430.481465625,0.9779052734375,0.044830322265625,0.2622833251953125,135430.458849625,2.213335431482029,1.867021596704123,0.02474183675008107,0.1841425448656082,1.023641228675842,0.3466190993785858,0.02945846319198608,0.05331892147660255,-0.0538007915019989,XArbitraryZVertical,-0.7153405980062604,0.3663320345558853,0.5364804083574779,0.2574442213303915,0.9561525583267212,-0.02473931200802326,0.2918226718902588,0,0,0,-1,-1,135415.506766125,unknown,2,2026-03-30T14:41:24.874-05:00,2026-03-30T10:54:16.334-05:00,3805,1.355992,0,0,2567.05,4,4,2026-03-30T14:40:59.141-05:00,796592497.8029202,0,0.8900032,99.59074,1,0.9,2026-03-30T14:37:50.703-05:00,72,1.2,2026-03-30T12:48:13.834-05:00,0.1236805929763694
2026-03-30T14:41:39.886-05:00,1774899698.829288,30.28872969301801,-97.73760576347054,174.2649,1.434168,0.5199412,235.6245601755418,18.82821216417847,3,19.14986562949547,-9999,135430.515390625,0.9897918701171875,0.0302276611328125,0.253997802734375,135430.489005625,2.204352107086299,1.898843519864837,0.03278455813938833,0.1707118302583694,1.067881941795349,0.3189111948013306,0.03033685684204102,0.06083950027823448,-0.05918920040130615,XArbitraryZVertical,-0.7210155002599536,0.3756961030705792,0.5253424320544069,0.2510067560069875,0.946164608001709,-0.03277868404984474,0.3220218122005463,0,0,0,-1,-1,135415.506766125,unknown,2,2026-03-30T14:41:24.874-05:00,2026-03-30T10:54:16.334-05:00,3805,1.355992,0,0,2567.05,4,4,2026-03-30T14:40:59.141-05:00,796592497.8029202,0,0.8900032,99.59074,1,0.9,2026-03-30T14:37:50.703-05:00,72,1.2,2026-03-30T12:48:13.834-05:00,0.1236805929763694
2026-03-30T14:41:39.921-05:00,1774899699.829288,30.28873044192031,-97.73759458408543,174.307,1.307029,0.6245705,236.773479956208,23.48769037633301,3,14.88601888694451,-9999,135430.549316625,1.006668090820312,-0.0491790771484375,0.254058837890625,135430.519160625,2.194616320988693,1.93219945072448,0.03960145106172697,0.337916225194931,1.124040365219116,0.3370110690593719,0.05506259202957153,0.06728570163249969,-0.09856438636779785,XArbitraryZVertical,-0.7268902403391131,0.3850785612516019,0.5132947951967649,0.2446906849506533,0.934668242931366,-0.03959110006690025,0.353309839963913,0,0,0,-1,-1,135415.506766125,unknown,2,2026-03-30T14:41:24.874-05:00,2026-03-30T10:54:16.334-05:00,3805,1.355992,0,0,2567.05,4,4,2026-03-30T14:40:59.141-05:00,796592497.8029202,0,0.8900032,99.59074,1,0.9,2026-03-30T14:37:50.703-05:00,72,1.2,2026-03-30T12:48:13.834-05:00,0.1236805929763694
2026-03-30T14:41:39.951-05:00,1774899699.829288,30.28873044192031,-97.73759458408543,174.307,1.307029,0.6245705,236.773479956208,23.48769037633301,3,14.88601888694451,-9999,135430.583239625,1.0340576171875,0.0033111572265625,0.135223388671875,135430.549316625,2.180539023192747,1.968164914484882,0.0444280943876863,0.4227550327777863,1.226525664329529,0.3051460385322571,0.08232158422470093,-0.01355476304888725,-0.1286157965660095,XArbitraryZVertical,-0.7325885854238486,0.395752079301387,0.4993593314721417,0.2394464740655462,0.9211727976799011,-0.0444134809076786,0.3866114914417267,0,0,0,-1,-1,135415.506766125,unknown,2,2026-03-30T14:41:24.874-05:00,2026-03-30T10:54:16.334-05:00,3805,1.355992,0,0,2567.05,4,4,2026-03-30T14:40:59.141-05:00,796592497.8029202,0,0.8900032,99.59074,1,0.9,2026-03-30T14:37:50.703-05:00,72,1.2,2026-03-30T12:48:13.834-05:00,0.1236805929763694
2026-03-30T14:41:39.987-05:00,1774899699.829288,30.28873044192031,-97.73759458408543,174.307,1.307029,0.6245705,236.773479956208,23.48769037633301,3,14.88601888694451,-9999,135430.617165625,1.033462524414062,0.0684967041015625,0.020294189453125,135430.609627625,2.147836351093972,2.052583483097933,0.04822778510246697,0.4525238275527954,1.574406981468201,0.2683606743812561,0.1446472406387329,0.07872657477855682,-0.402751088142395,XArbitraryZVertical,-0.7457744648226907,0.4186082766875568,0.4650549545511064,0.2287170120791827,0.8851379156112671,-0.04820908978581429,0.4628248810768127,0,0,0,-1,-1,135415.506766125,unknown,2,2026-03-30T14:41:24.874-05:00,2026-03-30T10:54:16.334-05:00,3805,1.355992,0,0,2567.05,4,4,2026-03-30T14:40:59.141-05:00,796592497.8029202,0,0.8900032,99.59074,1,0.9,2026-03-30T14:37:50.703-05:00,72,1.2,2026-03-30T12:48:13.834-05:00,0.1236805929763694
2026-03-30T14:41:40.022-05:00,1774899699.829288,30.28873044192031,-97.73759458408543,174.307,1.307029,0.6245705,236.773479956208,23.48769037633301,3,14.88601888694451,-9999,135430.651090625,1.05438232421875,0.165069580078125,-0.076812744140625,135430.639782625,2.132192282474153,2.104405492510544,0.04875609421104964,0.4693043828010559,1.801767349243164,0.2851736843585968,0.206177830696106,0.1454926580190659,-0.5291730165481567,XArbitraryZVertical,-0.7541618999898889,0.4304179673673642,0.4439681376869999,0.2210711964557451,0.859953761100769,-0.04873678088188171,0.5080395936965942,0,0,0,-1,-1,135415.506766125,unknown,2,2026-03-30T14:41:24.874-05:00,2026-03-30T10:54:16.334-05:00,3805,1.355992,0,0,2567.05,4,4,2026-03-30T14:40:59.141-05:00,796592497.8029202,0,0.8900032,99.59074,1,0.9,2026-03-30T14:37:50.703-05:00,72,1.2,2026-03-30T12:48:13.834-05:00,0.1236805929763694
2026-03-30T14:41:40.057-05:00,1774899699.829288,30.28873044192031,-97.73759458408543,174.307,1.307029,0.6245705,236.773479956208,23.48769037633301,3,14.88601888694451,-9999,135430.685015625,0.995849609375,0.257720947265625,-0.21844482421875,135430.669938625,2.111050064915114,2.164734082500523,0.04821479322975408,0.800439715385437,2.170608282089233,0.4713448882102966,0.1684964895248413,0.2486202120780945,-0.6940644383430481,XArbitraryZVertical,-0.762615196236738,0.4448676555207,0.4186836207664035,0.2126377026715056,0.8277802467346191,-0.04819611459970474,0.5589783191680908,0,0,0,-1,-1,135415.506766125,unknown,2,2026-03-30T14:41:24.874-05:00,2026-03-30T10:54:16.334-05:00,3805,1.355992,0,0,2567.05,4,4,2026-03-30T14:40:59.141-05:00,796592497.8029202,0,0.8900032,99.59074,1,0.9,2026-03-30T14:37:50.703-05:00,72,1.2,2026-03-30T12:48:13.834-05:00,0.1236805929763694
2026-03-30T14:41:40.087-05:00,1774899699.829288,30.28873044192031,-97.73759458408543,174.307,1.307029,0.6245705,236.773479956208,23.48769037633301,3,14.88601888694451,-9999,135430.718939625,1.394287109375,0.35150146484375,-0.3216400146484375,135430.700093625,2.078009400205829,2.241247433221881,0.04461702123368042,0.9060547947883606,2.759424924850464,0.634277880191803,0.2926014065742493,0.2385260760784149,-0.8789151310920715,XArbitraryZVertical,-0.7709157487903564,0.4648111979406315,0.3851216915878614,0.2032748263667544,0.7827615737915039,-0.04460221901535988,0.6207211017608643,0,0,0,-1,-1,135415.506766125,unknown,2,2026-03-30T14:41:24.874-05:00,2026-03-30T10:54:16.334-05:00,3805,1.355992,0,0,2567.05,4,4,2026-03-30T14:40:59.141-05:00,796592497.8029202,0,0.8900032,99.59074,1,0.9,2026-03-30T14:37:50.703-05:00,72,1.2,2026-03-30T12:48:13.834-05:00,0.1236805929763694
2026-03-30T14:41:40.122-05:00,1774899699.829288,30.28873044192031,-97.73759458408543,174.307,1.307029,0.6245705,236.773479956208,23.48769037633301,3,14.88601888694451,-9999,135430.752864625,1.48028564453125,0.2752685546875,-0.2066650390625,135430.730249625,2.037955644767922,2.330329324973681,0.04099900161654171,1.600700497627258,3.013208866119385,0.9731836915016174,0.6941071152687073,0.4937614798545837,-1.089813947677612,XArbitraryZVertical,-0.7780656113843031,0.4884833129832696,0.3458331102093839,0.1907807554384379,0.7245481610298157,-0.0409875176846981,0.6880040764808655,0,0,0,-1,-1,135415.506766125,unknown,2,2026-03-30T14:41:24.874-05:00,2026-03-30T10:54:16.334-05:00,3805,1.355992,0,0,2567.05,4,4,2026-03-30T14:40:59.141-05:00,796592497.8029202,0,0.8900032,99.59074,1,0.9,2026-03-30T14:37:50.703-05:00,72,1.2,2026-03-30T12:48:13.834-05:00,0.1236805929763694
2026-03-30T14:41:40.158-05:00,1774899699.829288,30.28873044192031,-97.73759458408543,174.307,1.307029,0.6245705,236.773479956208,23.48769037633301,3,14.88601888694451,-9999,135430.786790625,1.47039794921875,0.103240966796875,0.9612274169921875,135430.760404625,1.974125541054867,2.424450599270023,0.01718656822281122,2.0475754737854,3.041909694671631,0.8372276425361633,0.8079820871353149,0.2404522299766541,-0.9019064903259277,XArbitraryZVertical,-0.7796506967469268,0.5185872393783312,0.2972492391209186,0.1866948902340496,0.6571363210678101,-0.01718572154641151,0.75357586145401,0,0,0,-1,-1,135415.506766125,unknown,2,2026-03-30T14:41:24.874-05:00,2026-03-30T10:54:16.334-05:00,3805,1.355992,0,0,2567.05,4,4,2026-03-30T14:40:59.141-05:00,796592497.8029202,0,0.8900032,99.59074,1,0.9,2026-03-30T14:37:50.703-05:00,72,1.2,2026-03-30T12:48:13.834-05:00,0.1236805929763694
2026-03-30T14:41:40.192-05:00,1774899699.829288,30.28873044192031,-97.73759458408543,174.307,1.307029,0.6245705,236.773479956208,23.48769037633301,3,14.88601888694451,-9999,135430.820715625,1.268646240234375,0.2266998291015625,1.212875366210938,135430.790560625,1.929883354817683,2.502988937324389,-0.003876388985462345,1.108762383460999,2.471553564071655,0.543009340763092,0.9017017483711243,0.08451768755912781,0.141413152217865,XArbitraryZVertical,-0.7808117534139221,0.5401799462774516,0.2569853988448753,0.1802695053774632,0.596070408821106,0.00387637922540307,0.8029227256774902,0,0,0,-1,-1,135415.506766125,unknown,2,2026-03-30T14:41:24.874-05:00,2026-03-30T10:54:16.334-05:00,3805,1.355992,0,0,2567.05,4,4,2026-03-30T14:40:59.141-05:00,796592497.8029202,0,0.8900032,99.59074,1,0.9,2026-03-30T14:37:50.703-05:00,72,1.2,2026-03-30T12:48:13.834-05:00,0.1236805929763694
2026-03-30T14:41:40.223-05:00,1774899699.829288,30.28873044192031,-97.73759458408543,174.307,1.307029,0.6245705,236.773479956208,23.48769037633301,3,14.88601888694451,-9999,135430.854639625,0.5355682373046875,0.1622161865234375,1.407928466796875,135430.820715625,1.900854029129743,2.564213086656869,-0.02327002685285853,0.9474028944969177,1.27606999874115,0.3122468590736389,0.670626163482666,0.2304246127605438,0.3618396520614624,XArbitraryZVertical,-0.7818653540093854,0.5545458234940936,0.2251477435958207,0.174568042421259,0.5456823706626892,0.02326792664825916,0.8376690149307251,0,0,0,-1,-1,135415.506766125,unknown,2,2026-03-30T14:41:24.874-05:00,2026-03-30T10:54:16.334-05:00,3805,1.355992,0,0,2567.05,4,4,2026-03-30T14:40:59.141-05:00,796592497.8029202,0,0.8900032,99.59074,1,0.9,2026-03-30T14:37:50.703-05:00,72,1.2,2026-03-30T12:48:13.834-05:00,0.1236805929763694
2026-03-30T14:41:40.258-05:00,1774899699.829288,30.28873044192031,-97.73759458408543,174.307,1.307029,0.6245705,236.773479956208,23.48769037633301,3,14.88601888694451,-9999,135430.888564625,0.703704833984375,0.5354156494140625,1.166534423828125,135430.881026625,1.849307541820161,2.582420894364466,-0.03246734406406444,1.544712543487549,-1.128923892974854,0.8860852718353271,-0.1246719360351562,0.5233701467514038,0.3785820603370667,XArbitraryZVertical,-0.7700059330838884,0.5750780805992547,0.210904410281836,0.1785925506104219,0.5302045941352844,0.03246163949370384,0.8472478985786438,0,0,0,-1,-1,135415.506766125,unknown,2,2026-03-30T14:41:24.874-05:00,2026-03-30T10:54:16.334-05:00,3805,1.355992,0,0,2567.05,4,4,2026-03-30T14:40:59.141-05:00,796592497.8029202,0,0.8900032,99.59074,1,0.9,2026-03-30T14:37:50.703-05:00,72,1.2,2026-03-30T12:48:13.834-05:00,0.1236805929763694
2026-03-30T14:41:40.293-05:00,1774899699.829288,30.28873044192031,-97.73759458408543,174.307,1.307029,0.6245705,236.773479956208,23.48769037633301,3,14.88601888694451,-9999,135430.922489625,0.1464691162109375,0.1435546875,1.23162841796875,135430.911182625,1.804683974719541,2.51751907934821,-0.04106735545884704,0.3851336538791656,-2.735614061355591,1.218523859977722,-0.07710868120193481,0.2644403278827667,0.4448709487915039,XArbitraryZVertical,-0.7506329115900958,0.5847739543062815,0.2287642193085944,0.2055642128038328,0.5838531255722046,0.04105581343173981,0.8108206987380981,0,0,0,-1,-1,135415.506766125,unknown,2,2026-03-30T14:41:24.874-05:00,2026-03-30T10:54:16.334-05:00,3805,1.355992,0,0,2567.05,4,4,2026-03-30T14:40:59.141-05:00,796592497.8029202,0,0.8900032,99.59074,1,0.9,2026-03-30T14:37:50.703-05:00,72,1.2,2026-03-30T12:48:13.834-05:00,0.1236805929763694
2026-03-30T14:41:40.328-05:00,1774899699.829288,30.28873044192031,-97.73759458408543,174.307,1.307029,0.6245705,236.773479956208,23.48769037633301,3,14.88601888694451,-9999,135430.956415625,0.24200439453125,0.3219146728515625,1.028121948242188,135430.941337625,1.774193635707974,2.419909034850868,-0.02681393591164275,0.5906757712364197,-3.778304576873779,1.029555439949036,-0.5164300799369812,0.153426006436348,0.3668239116668701,XArbitraryZVertical,-0.7282403113276938,0.5872633841937479,0.2657604342896734,0.2327208901102718,0.6604118347167969,0.02681072242558002,0.7504244446754456,0,0,0,-1,-1,135415.506766125,unknown,2,2026-03-30T14:41:24.874-05:00,2026-03-30T10:54:16.334-05:00,3805,1.355992,0,0,2567.05,4,4,2026-03-30T14:40:59.141-05:00,796592497.8029202,0,0.8900032,99.59074,1,0.9,2026-03-30T14:37:50.703-05:00,72,1.2,2026-03-30T12:48:13.834-05:00,0.1236805929763694
2026-03-30T14:41:40.359-05:00,1774899699.829288,30.28873044192031,-97.73759458408543,174.307,1.307029,0.6245705,236.773479956208,23.48769037633301,3,14.88601888694451,-9999,135430.990338625,0.1227569580078125,0.1007080078125,1.086502075195312,135430.971493625,1.733930873558304,2.28673662399369,-0.02020442152274662,0.6100923418998718,-4.958908557891846,1.189272403717041,-0.5055736303329468,0.2416987121105194,0.4142718911170959,XArbitraryZVertical,-0.696456698329888,0.5857000509058324,0.3100603791387587,0.2752560263431904,0.7543221712112427,0.02020304650068283,0.65619295835495,0,0,0,-1,-1,135415.506766125,unknown,2,2026-03-30T14:41:24.874-05:00,2026-03-30T10:54:16.334-05:00,3805,1.355992,0,0,2567.05,4,4,2026-03-30T14:40:59.141-05:00,796592497.8029202,0,0.8900032,99.59074,1,0.9,2026-03-30T14:37:50.703-05:00,72,1.2,2026-03-30T12:48:13.834-05:00,0.1236805929763694
2026-03-30T14:41:40.393-05:00,1774899699.829288,30.28873044192031,-97.73759458408543,174.307,1.307029,0.6245705,236.773479956208,23.48769037633301,3,14.88601888694451,-9999,135431.024264625,0.2840728759765625,0.02020263671875,0.9392242431640625,135431.001648625,1.701314353105669,2.128189221659485,-0.006617935195631908,0.9557781219482422,-5.535892963409424,0.6787641048431396,-0.8001108765602112,0.100468210875988,0.4860202074050903,XArbitraryZVertical,-0.6583164625686094,0.5754141136316724,0.3628937872147079,0.3222206376686316,0.8486185073852539,0.006617886945605278,0.5289639234542847,0,0,0,-1,-1,135415.506766125,unknown,2,2026-03-30T14:41:24.874-05:00,2026-03-30T10:54:16.334-05:00,3805,1.355992,0,0,2567.05,4,4,2026-03-30T14:40:59.141-05:00,796592500.3800651,0,0.9000015,99.59051,1,0.9,2026-03-30T14:37:50.703-05:00,72,1.2,2026-03-30T12:48:13.834-05:00,0.1236805929763694
2026-03-30T14:41:40.430-05:00,1774899699.829288,30.28873044192031,-97.73759458408543,174.307,1.307029,0.6245705,236.773479956208,23.48769037633301,3,14.88601888694451,-9999,135431.058189625,0.4282379150390625,-0.1729583740234375,0.811798095703125,135431.031804625,1.658019009169048,1.953900908442295,-0.00880089014145362,1.778728127479553,-6.04655122756958,0.4382709562778473,-0.614850640296936,-0.001659748144447803,0.5466228723526001,XArbitraryZVertical,-0.6126970149844801,0.5581182838241973,0.410069194429284,0.3807224412776524,0.9274726510047913,0.008800776675343513,0.3737873136997223,0,0,0,-1,-1,135415.506766125,unknown,2,2026-03-30T14:41:24.874-05:00,2026-03-30T10:54:16.334-05:00,3805,1.355992,0,0,2567.05,4,4,2026-03-30T14:40:59.141-05:00,796592500.3800651,0,0.9000015,99.59051,1,0.9,2026-03-30T14:37:50.703-05:00,72,1.2,2026-03-30T12:48:13.834-05:00,0.1236805929763694
2026-03-30T14:41:40.464-05:00,1774899699.829288,30.28873044192031,-97.73759458408543,174.307,1.307029,0.6245705,236.773479956208,23.48769037633301,3,14.88601888694451,-9999,135431.092115625,0.818145751953125,0.1007537841796875,0.3376617431640625,135431.061959625,1.618880846256019,1.777340897261389,-0.0147126583968752,0.6433156728744507,-5.411862373352051,0.01050090603530407,-0.5548571348190308,-0.1801785081624985,0.6123716831207275,XArbitraryZVertical,-0.5651012949991963,0.5321550489412702,0.4524278067439981,0.4390678408323758,0.9786394238471985,0.01471212785691023,0.2050569355487823,0,0,0,-1,-1,135415.506766125,unknown,2,2026-03-30T14:41:24.874-05:00,2026-03-30T10:54:16.334-05:00,3805,1.355992,0,0,2567.05,4,4,2026-03-30T14:40:59.141-05:00,796592500.3800651,0,0.9000015,99.59051,1,0.9,2026-03-30T14:37:50.703-05:00,72,1.2,2026-03-30T12:48:13.834-05:00,0.1236805929763694
2026-03-30T14:41:40.494-05:00,1774899699.829288,30.28873044192031,-97.73759458408543,174.307,1.307029,0.6245705,236.773479956208,23.48769037633301,3,14.88601888694451,-9999,135431.126038625,0.8360137939453125,0.033843994140625,0.3874664306640625,135431.092115625,1.572219685186284,1.621356848769061,-0.0262477106563913,2.717886209487915,-4.761549949645996,-0.3408850133419037,-0.2311204075813293,-0.0010067168623209,0.3506931066513062,XArbitraryZVertical,-0.5191886428172694,0.5056717747107989,0.4807853856695931,0.4935430526491134,0.9983782172203064,0.02624469622969627,0.05052158236503601,0,0,0,-1,-1,135415.506766125,unknown,2,2026-03-30T14:41:24.874-05:00,2026-03-30T10:54:16.334-05:00,3805,1.355992,0,0,2567.05,4,4,2026-03-30T14:40:59.141-05:00,796592500.3800651,0,0.9000015,99.59051,1,0.9,2026-03-30T14:37:50.703-05:00,72,1.2,2026-03-30T12:48:13.834-05:00,0.1236805929763694
2026-03-30T14:41:40.530-05:00,1774899699.829288,30.28873044192031,-97.73759458408543,174.307,1.307029,0.6245705,236.773479956208,23.48769037633301,3,14.88601888694451,-9999,135431.159963625,0.2847900390625,0.315460205078125,-0.13702392578125,135431.152426625,1.427145376467703,1.424049619283001,-0.01686882050039057,2.209084272384644,-1.001336336135864,0.3656930923461914,-0.5227873921394348,0.3511586487293243,0.1933037042617798,XArbitraryZVertical,-0.4324669351311169,0.4897677609594484,0.4913286391528492,0.5759305914604131,0.9891112446784973,0.01686802133917809,-0.1461997777223587,0,0,0,-1,-1,135415.506766125,unknown,2,2026-03-30T14:41:24.874-05:00,2026-03-30T10:54:16.334-05:00,3805,1.355992,0,0,2567.05,4,4,2026-03-30T14:40:59.141-05:00,796592500.3800651,0,0.9000015,99.59051,1,0.9,2026-03-30T14:37:50.703-05:00,72,1.2,2026-03-30T12:48:13.834-05:00,0.1236805929763694
2026-03-30T14:41:40.564-05:00,1774899699.829288,30.28873044192031,-97.73759458408543,174.307,1.307029,0.6245705,236.773479956208,23.48769037633301,3,14.88601888694451,-9999,135431.193889625,0.64276123046875,-0.2668304443359375,-0.0567169189453125,135431.182581625,1.381543230398684,1.42874005633982,-0.001437856566665895,0.4486981630325317,1.276041746139526,0.1908926516771317,-0.3808866143226624,-0.1828038692474365,-0.05385567247867584,XArbitraryZVertical,-0.4178302479601665,0.5046072399732449,0.4809940586168114,0.5826098363778014,0.9899260401725769,0.001437856117263436,-0.1415788382291794,0,0,0,-1,-1,135415.506766125,unknown,2,2026-03-30T14:41:24.874-05:00,2026-03-30T10:54:16.334-05:00,3805,1.355992,0,0,2567.05,4,4,2026-03-30T14:40:59.141-05:00,796592500.3800651,0,0.9000015,99.59051,1,0.9,2026-03-30T14:37:50.703-05:00,72,1.2,2026-03-30T12:48:13.834-05:00,0.1236805929763694
2026-03-30T14:41:40.599-05:00,1774899699.829288,30.28873044192031,-97.73759458408543,174.307,1.307029,0.6245705,236.773479956208,23.48769037633301,3,14.88601888694451,-9999,135431.227814625,2.939178466796875,0.39508056640625,-0.7075958251953125,135431.212736625,1.403602770089999,1.481770808784953,-0.01007753009525884,-1.27541446685791,1.055156707763672,-0.4892422258853912,-0.04129260778427124,0.1443567723035812,0.4113216996192932,XArbitraryZVertical,-0.4385722253311935,0.513032818444807,0.4737623594985073,0.5656863430889635,0.9959893226623535,0.01007735915482044,-0.08890346437692642,0,0,0,-1,-1,135415.506766125,unknown,2,2026-03-30T14:41:24.874-05:00,2026-03-30T10:54:16.334-05:00,3805,1.355992,0,0,2567.05,4,4,2026-03-30T14:40:59.141-05:00,796592500.3800651,0,0.9000015,99.59051,1,0.9,2026-03-30T14:37:50.703-05:00,72,1.2,2026-03-30T12:48:13.834-05:00,0.1236805929763694
2026-03-30T14:41:40.630-05:00,1774899699.829288,30.28873044192031,-97.73759458408543,174.307,1.307029,0.6245705,236.773479956208,23.48769037633301,3,14.88601888694451,-9999,135431.261738625,0.446319580078125,0.1161346435546875,0.5593414306640625,135431.242892625,1.471942723618121,1.52018578590805,-0.01005301801100279,-2.041591167449951,1.886090397834778,0.4755488038063049,1.191150188446045,-0.5486271381378174,-0.06072641164064407,XArbitraryZVertical,-0.4652175518002991,0.5082119979295573,0.4839718740998772,0.5395040158026027,0.9986692667007446,0.01005284860730171,-0.05058638751506805,0,0,0,-1,-1,135415.506766125,unknown,2,2026-03-30T14:41:24.874-05:00,2026-03-30T10:54:16.334-05:00,3805,1.355992,0,0,2567.05,4,4,2026-03-30T14:40:59.141-05:00,796592500.3800651,0,0.9000015,99.59051,1,0.9,2026-03-30T14:37:50.703-05:00,72,1.2,2026-03-30T12:48:13.834-05:00,0.1236805929763694
2026-03-30T14:41:40.665-05:00,1774899699.829288,30.28873044192031,-97.73759458408543,174.307,1.307029,0.6245705,236.773479956208,23.48769037633301,3,14.88601888694451,-9999,135431.295663625,1.255416870117188,-0.021575927734375,0.7667999267578125,135431.273047625,1.49169916485755,1.577711066423085,-0.001192605995323353,0.9493029713630676,2.18179178237915,0.2444985955953598,-0.6606504321098328,0.3452428877353668,0.6123480796813965,XArbitraryZVertical,-0.4818045703840556,0.5208854917682679,0.4778671686960777,0.5178663577715421,0.999975323677063,0.00119260570500046,0.006914678961038589,0,0,0,-1,-1,135415.506766125,unknown,2,2026-03-30T14:41:24.874-05:00,2026-03-30T10:54:16.334-05:00,3805,1.355992,0,0,2567.05,4,4,2026-03-30T14:40:59.141-05:00,796592500.3800651,0,0.9000015,99.59051,1,0.9,2026-03-30T14:37:50.703-05:00,72,1.2,2026-03-30T12:48:13.834-05:00,0.1236805929763694
2026-03-30T14:41:40.700-05:00,1774899699.829288,30.28873044192031,-97.73759458408543,174.307,1.307029,0.6245705,236.773479956208,23.48769037633301,3,14.88601888694451,-9999,135431.329589625,0.758880615234375,0.00628662109375,0.7135162353515625,135431.303203625,1.455697998469049,1.630831703019328,0.006815646295498335,0.7096439003944397,1.227470874786377,0.2085163146257401,0.3565152883529663,0.004465674515813589,0.6852566003799438,XArbitraryZVertical,-0.4825731515741112,0.5450890887413573,0.4579326435644236,0.5101947545537772,0.9981752038002014,-0.006815593689680099,0.05999792367219925,0,0,0,-1,-1,135415.506766125,unknown,2,2026-03-30T14:41:24.874-05:00,2026-03-30T10:54:16.334-05:00,3805,1.355992,0,0,2567.05,4,4,2026-03-30T14:40:59.141-05:00,796592500.3800651,0,0.9000015,99.59051,1,0.9,2026-03-30T14:37:50.703-05:00,72,1.2,2026-03-30T12:48:13.834-05:00,0.1236805929763694
2026-03-30T14:41:40.735-05:00,1774899699.829288,30.28873044192031,-97.73759458408543,174.307,1.307029,0.6245705,236.773479956208,23.48769037633301,3,14.88601888694451,-9999,135431.363514625,1.013031005859375,0.12945556640625,0.324615478515625,135431.333358625,1.460714462867219,1.672745196721117,0.01231001539204128,-0.08823701739311218,1.431804299354553,0.2828470170497894,-0.2333950400352478,-0.009891909547150135,0.6284142732620239,XArbitraryZVertical,-0.4920774578898116,0.5556456632594248,0.4504820746042631,0.4961689566743103,0.9947323799133301,-0.01230970490723848,0.1017646566033363,0,0,0,-1,-1,135415.506766125,unknown,2,2026-03-30T14:41:24.874-05:00,2026-03-30T10:54:16.334-05:00,3805,1.355992,0,0,2567.05,4,4,2026-03-30T14:40:59.141-05:00,796592500.3800651,0,0.9000015,99.59051,1,0.9,2026-03-30T14:37:50.703-05:00,72,1.2,2026-03-30T12:48:13.834-05:00,0.1236805929763694
2026-03-30T14:41:40.766-05:00,1774899699.829288,30.28873044192031,-97.73759458408543,174.307,1.307029,0.6245705,236.773479956208,23.48769037633301,3,14.88601888694451,-9999,135431.397437625,1.056106567382812,-0.42938232421875,0.512603759765625,135431.363514625,1.430479967063509,1.708021519788773,0.01914628998523329,1.492431163787842,1.027623295783997,0.3703073561191559,0.08695942163467407,0.2964582741260529,0.2022347301244736,XArbitraryZVertical,-0.4896500625093592,0.5732606214920239,0.4362653412364813,0.4912103539916118,0.9904178380966187,-0.01914511993527412,0.1367698460817337,0,0,0,-1,-1,135415.506766125,unknown,2,2026-03-30T14:41:24.874-05:00,2026-03-30T10:54:16.334-05:00,3805,1.355992,0,0,2567.05,4,4,2026-03-30T14:40:59.141-05:00,796592500.3800651,0,0.9000015,99.59051,1,0.9,2026-03-30T14:37:50.703-05:00,72,1.2,2026-03-30T12:48:13.834-05:00,0.1236805929763694
2026-03-30T14:41:40.801-05:00,1774899699.829288,30.28873044192031,-97.73759458408543,174.307,1.307029,0.6245705,236.773479956208,23.48769037633301,3,14.88601888694451,-9999,135431.431363625,0.973358154296875,0.00909423828125,0.3197784423828125,135431.423825625,1.404622182744874,1.757250762368681,0.02514953236013088,0.5957509279251099,0.6397839784622192,0.1405627578496933,0.0186653733253479,0.05398593470454216,0.1446692943572998,XArbitraryZVertical,-0.4911530974452857,0.5928130435859672,0.4196302894678607,0.4808864479825878,0.9823569655418396,-0.02514688111841679,0.18531733751297,0,0,0,-1,-1,135415.506766125,unknown,2,2026-03-30T14:41:24.874-05:00,2026-03-30T10:54:16.334-05:00,3805,1.355992,0,0,2567.05,4,4,2026-03-30T14:40:59.141-05:00,796592500.3800651,0,0.9000015,99.59051,1,0.9,2026-03-30T14:37:50.703-05:00,72,1.2,2026-03-30T12:48:13.834-05:00,0.1236805929763694
2026-03-30T14:41:40.836-05:00,1774899699.829288,30.28873044192031,-97.73759458408543,174.307,1.307029,0.6245705,236.773479956208,23.48769037633301,3,14.88601888694451,-9999,135431.465288625,0.9507904052734375,-0.019927978515625,0.36163330078125,135431.453980625,1.391576551227809,1.775142258661823,0.02567581923517443,0.2020354270935059,0.5229296684265137,0.0360465832054615,0.02636253833770752,-0.08228298276662827,0.1729336977005005,XArbitraryZVertical,-0.4908529248378836,0.6004109755799349,0.4122642739018254,0.4781299731767172,0.97887122631073,-0.02567299827933311,0.2028598636388779,0,0,0,-1,-1,135415.506766125,unknown,2,2026-03-30T14:41:24.874-05:00,2026-03-30T10:54:16.334-05:00,3805,1.355992,0,0,2567.05,4,4,2026-03-30T14:40:59.141-05:00,796592500.3800651,0,0.9000015,99.59051,1,0.9,2026-03-30T14:37:50.703-05:00,72,1.2,2026-03-30T12:48:13.834-05:00,0.1236805929763694
2026-03-30T14:41:40.871-05:00,1774899699.829288,30.28873044192031,-97.73759458408543,174.307,1.307029,0.6245705,236.773479956208,23.48769037633301,3,14.88601888694451,-9999,135431.499214625,1.023910522460938,-0.015625,0.33184814453125,135431.484136625,1.380553775179534,1.790925486452311,0.02461789527625478,0.4733897149562836,0.4700282216072083,0.07117525488138199,-0.05125719308853149,0.08021838217973709,0.07622039318084717,XArbitraryZVertical,-0.4910120409134156,0.6066728316603559,0.405447022813502,0.4758864743833804,0.9755735397338867,-0.02461540885269642,0.2182894945144653,0,0,0,-1,-1,135415.506766125,unknown,2,2026-03-30T14:41:24.874-05:00,2026-03-30T10:54:16.334-05:00,3805,1.355992,0,0,2567.05,4,4,2026-03-30T14:40:59.141-05:00,796592500.3800651,0,0.9000015,99.59051,1,0.9,2026-03-30T14:37:50.703-05:00,72,1.2,2026-03-30T12:48:13.834-05:00,0.1236805929763694
2026-03-30T14:41:40.902-05:00,1774899699.829288,30.28873044192031,-97.73759458408543,174.307,1.307029,0.6245705,236.773479956208,23.48769037633301,3,14.88601888694451,-9999,135431.533137625,0.9810638427734375,0.0029449462890625,0.313568115234375,135431.514291625,1.366446351440344,1.804211335407245,0.02354547247242722,0.4613848328590393,0.4138325154781342,0.07040978223085403,0.01077061891555786,-0.000489361584186554,0.09249338507652283,XArbitraryZVertical,-0.4896418084329404,0.6130819364148482,0.3985143425209712,0.4749396238436467,0.9726123809814453,-0.02354329638183117,0.2312371283769608,0,0,0,-1,-1,135415.506766125,unknown,2,2026-03-30T14:41:24.874-05:00,2026-03-30T10:54:16.334-05:00,3805,1.355992,0,0,2567.05,4,4,2026-03-30T14:40:59.141-05:00,796592500.3800651,0,0.9000015,99.59051,1,0.9,2026-03-30T14:37:50.703-05:00,72,1.2,2026-03-30T12:48:13.834-05:00,0.1236805929763694
2026-03-30T14:41:40.936-05:00,1774899699.829288,30.28873044192031,-97.73759458408543,174.307,1.307029,0.6245705,236.773479956208,23.48769037633301,3,14.88601888694451,-9999,135431.567063625,0.937591552734375,0.14794921875,0.19134521484375,135431.544447625,1.353418463066612,1.816819010817813,0.02304290814373288,0.4797860085964203,0.4433998465538025,0.1202163770794868,0.00740426778793335,0.05792238563299179,0.06120389699935913,XArbitraryZVertical,-0.4882426697753425,0.6191614999196934,0.3921896726010539,0.4737568544552678,0.9696314930915833,-0.02304086834192276,0.2434837371110916,0,0,0,-1,-1,135415.506766125,unknown,2,2026-03-30T14:41:24.874-05:00,2026-03-30T10:54:16.334-05:00,3805,1.355992,0,0,2567.05,4,4,2026-03-30T14:40:59.141-05:00,796592500.3800651,0,0.9000015,99.59051,1,0.9,2026-03-30T14:37:50.703-05:00,72,1.2,2026-03-30T12:48:13.834-05:00,0.1236805929763694
2026-03-30T14:41:40.972-05:00,1774899699.829288,30.28873044192031,-97.73759458408543,174.307,1.307029,0.6245705,236.773479956208,23.48769037633301,3,14.88601888694451,-9999,135431.600988625,0.96453857421875,0.0818328857421875,-0.0229339599609375,135431.574602625,1.33486455413706,1.833688488818374,0.02383847502482762,0.6173751950263977,0.6275395750999451,0.2309754192829132,-0.02394664287567139,0.1687488704919815,-0.07928904891014099,XArbitraryZVertical,-0.4855390893213984,0.6278153466033229,0.3839407052119382,0.4718997158191608,0.9653682112693787,-0.02383621782064438,0.2598006427288055,0,0,0,-1,-1,135415.506766125,unknown,2,2026-03-30T14:41:24.874-05:00,2026-03-30T10:54:16.334-05:00,3805,1.355992,0,0,2567.05,4,4,2026-03-30T14:40:59.141-05:00,796592500.3800651,0,0.9000015,99.59051,1,0.9,2026-03-30T14:37:50.703-05:00,72,1.2,2026-03-30T12:48:13.834-05:00,0.1236805929763694
2026-03-30T14:41:41.007-05:00,1774899701.000289,30.28874300237514,-97.73758551542419,174.2193,1.22633,0.4689149,244.2502967953242,24.51879110136377,3,12.74353413785483,-9999,135431.634913625,0.9488677978515625,0.0914764404296875,-0.05975341796875,135431.604758625,1.314810110933095,1.85650252341119,0.02628568004086371,0.6589758396148682,0.7969807386398315,0.2995628118515015,-0.0004065036773681641,0.1046212241053581,-0.3005365431308746,XArbitraryZVertical,-0.4829258735248778,0.6384758862233146,0.3744683348639684,0.4678723749505341,0.9591313600540161,-0.0262826532125473,0.2817377150058746,0,0,0,-1,-1,135415.506766125,unknown,2,2026-03-30T14:41:24.874-05:00,2026-03-30T10:54:16.334-05:00,3805,1.355992,0,0,2567.05,4,4,2026-03-30T14:40:59.141-05:00,796592500.3800651,0,0.9000015,99.59051,1,0.9,2026-03-30T14:37:50.703-05:00,72,1.2,2026-03-30T12:48:13.834-05:00,0.1236805929763694
2026-03-30T14:41:41.038-05:00,1774899701.000289,30.28874300237514,-97.73758551542419,174.2193,1.22633,0.4689149,244.2502967953242,24.51879110136377,3,12.74353413785483,-9999,135431.668837625,0.9999237060546875,0.0721588134765625,-0.013214111328125,135431.665069625,1.269303519047194,1.918129501768212,0.03340987365727092,0.6116962432861328,1.208346605300903,0.3802978098392487,0.03678816556930542,0.08615323901176453,-0.373755544424057,XArbitraryZVertical,-0.4775853508722709,0.6648405739098868,0.3514570797088133,0.4542875884064992,0.9397591352462769,-0.0334036573767662,0.3402015268802643,0,0,0,-1,-1,135415.506766125,unknown,2,2026-03-30T14:41:24.874-05:00,2026-03-30T10:54:16.334-05:00,3805,1.355992,0,0,2567.05,4,4,2026-03-30T14:40:59.141-05:00,796592500.3800651,0,0.9000015,99.59051,1,0.9,2026-03-30T14:37:50.703-05:00,72,1.2,2026-03-30T12:48:13.834-05:00,0.1236805929763694
2026-03-30T14:41:41.072-05:00,1774899701.000289,30.28874300237514,-97.73758551542419,174.2193,1.22633,0.4689149,244.2502967953242,24.51879110136377,3,12.74353413785483,-9999,135431.702762625,1.07659912109375,0.0135040283203125,0.0713653564453125,135431.695224625,1.250706431359889,1.957993572237279,0.03732419416490605,0.4500898122787476,1.381594896316528,0.309609442949295,0.1089908480644226,0.0560380294919014,-0.3274353742599487,XArbitraryZVertical,-0.4773075475529905,0.6788544273155073,0.3390591840626055,0.4431399941962174,0.9253261089324951,-0.03731552883982658,0.3773316442966461,0,0,0,-1,-1,135415.506766125,unknown,2,2026-03-30T14:41:24.874-05:00,2026-03-30T10:54:16.334-05:00,3805,1.355992,0,0,2567.05,4,4,2026-03-30T14:40:59.141-05:00,796592500.3800651,0,0.9000015,99.59051,1,0.9,2026-03-30T14:37:50.703-05:00,72,1.2,2026-03-30T12:48:13.834-05:00,0.1236805929763694
2026-03-30T14:41:41.107-05:00,1774899701.000289,30.28874300237514,-97.73758551542419,174.2193,1.22633,0.4689149,244.2502967953242,24.51879110136377,3,12.74353413785483,-9999,135431.736688625,1.119659423828125,0.063201904296875,0.0318450927734375,135431.725380625,1.232131938306315,2.003118720463715,0.03994490052011894,0.6485066413879395,1.563250780105591,0.3596851229667664,0.1870436668395996,0.08697709441184998,-0.3633638322353363,XArbitraryZVertical,-0.4778301115646402,0.693542757063274,0.3251108869250008,0.4300925298249179,0.9072706699371338,-0.03993427753448486,0.4186463356018066,0,0,0,-1,-1,135415.506766125,unknown,2,2026-03-30T14:41:24.874-05:00,2026-03-30T10:54:16.334-05:00,3805,1.355992,0,0,2567.05,4,4,2026-03-30T14:40:59.141-05:00,796592500.3800651,0,0.9000015,99.59051,1,0.9,2026-03-30T14:37:50.703-05:00,72,1.2,2026-03-30T12:48:13.834-05:00,0.1236805929763694
2026-03-30T14:41:41.142-05:00,1774899701.000289,30.28874300237514,-97.73758551542419,174.2193,1.22633,0.4689149,244.2502967953242,24.51879110136377,3,12.74353413785483,-9999,135431.770613625,1.058990478515625,0.116668701171875,-0.073944091796875,135431.755535625,1.205493558182659,2.054724951505521,0.03933233181767094,0.9411394000053406,1.817353248596191,0.3759303390979767,0.2019059658050537,0.1219179630279541,-0.4730790853500366,XArbitraryZVertical,-0.4767673292411559,0.7107342501079614,0.3069446087376621,0.4163350517951704,0.8844894766807556,-0.03932218998670578,0.4649005234241486,0,0,0,-1,-1,135415.506766125,unknown,2,2026-03-30T14:41:24.874-05:00,2026-03-30T10:54:16.334-05:00,3805,1.355992,0,0,2567.05,4,4,2026-03-30T14:40:59.141-05:00,796592500.3800651,0,0.9000015,99.59051,1,0.9,2026-03-30T14:37:50.703-05:00,72,1.2,2026-03-30T12:48:13.834-05:00,0.1236805929763694
2026-03-30T14:41:41.173-05:00,1774899701.000289,30.28874300237514,-97.73758551542419,174.2193,1.22633,0.4689149,244.2502967953242,24.51879110136377,3,12.74353413785483,-9999,135431.804537625,1.260772705078125,0.249786376953125,-0.2421112060546875,135431.785691625,1.171090197194719,2.116119566109732,0.03293681237678189,1.200351238250732,2.189773082733154,0.3493305444717407,0.2293662428855896,0.1849998980760574,-0.6395373940467834,XArbitraryZVertical,-0.4747874640120096,0.730604843205435,0.2830345719328288,0.4008551503669862,0.8544959425926208,-0.03293085843324661,0.5184131264686584,0,0,0,-1,-1,135415.506766125,unknown,2,2026-03-30T14:41:24.874-05:00,2026-03-30T10:54:16.334-05:00,3805,1.355992,0,0,2567.05,4,4,2026-03-30T14:40:59.141-05:00,796592500.3800651,0,0.9000015,99.59051,1,0.9,2026-03-30T14:37:50.703-05:00,72,1.2,2026-03-30T12:48:13.834-05:00,0.1236805929763694
2026-03-30T14:41:41.208-05:00,1774899701.000289,30.28874300237514,-97.73758551542419,174.2193,1.22633,0.4689149,244.2502967953242,24.51879110136377,3,12.74353413785483,-9999,135431.838462625,1.253936767578125,0.706695556640625,-0.4576568603515625,135431.815846625,1.130022277212761,2.188468659577021,0.0200828982263164,1.964558124542236,2.563679218292236,0.5679227113723755,0.4444265365600586,0.4647378921508789,-0.8618286848068237,XArbitraryZVertical,-0.4718523739796984,0.7529053928935495,0.2531373559904357,0.3826360028865909,0.8150643706321716,-0.02008154802024364,0.5790224075317383,0,0,0,-1,-1,135415.506766125,unknown,2,2026-03-30T14:41:24.874-05:00,2026-03-30T10:54:16.334-05:00,3805,1.355992,0,0,2567.05,4,4,2026-03-30T14:40:59.141-05:00,796592500.3800651,0,0.9000015,99.59051,1,0.9,2026-03-30T14:37:50.703-05:00,72,1.2,2026-03-30T12:48:13.834-05:00,0.1236805929763694
2026-03-30T14:41:41.250-05:00,1774899701.000289,30.28874300237514,-97.73758551542419,174.2193,1.22633,0.4689149,244.2502967953242,24.51879110136377,3,12.74353413785483,-9999,135431.872387625,1.318145751953125,-0.3792877197265625,-0.098876953125,135431.846002625,1.058732558581197,2.272926517196353,-0.01012419185291247,2.710570812225342,2.882630825042725,0.6384435892105103,0.4987626671791077,0.6406328082084656,-1.078078508377075,XArbitraryZVertical,-0.4599316438514486,0.7819009283059469,0.2085348112200563,0.3655229514527978,0.7634289860725403,0.01012401934713125,0.6458123326301575,0,0,0,-1,-1,135415.506766125,unknown,2,2026-03-30T14:41:24.874-05:00,2026-03-30T10:54:16.334-05:00,3805,1.355992,0,0,2567.05,4,4,2026-03-30T14:40:59.141-05:00,796592500.3800651,0,0.9000015,99.59051,1,0.9,2026-03-30T14:37:50.703-05:00,72,1.2,2026-03-30T12:48:13.834-05:00,0.1236805929763694
2026-03-30T14:41:41.278-05:00,1774899701.000289,30.28874300237514,-97.73758551542419,174.2193,1.22633,0.4689149,244.2502967953242,24.51879110136377,3,12.74353413785483,-9999,135431.906313625,1.553741455078125,-0.147674560546875,0.9384918212890625,135431.876157625,0.9984798533568864,2.363609774963123,-0.05046635356162466,1.671603441238403,3.020271778106689,0.07184093445539474,0.6077500581741333,-0.3987725973129272,-0.8318614363670349,XArbitraryZVertical,-0.4512511768741929,0.8075173655522008,0.1610177249427722,0.3440369450300462,0.7009505033493042,0.05044493451714516,0.7114238142967224,0,0,0,-1,-1,135415.506766125,unknown,2,2026-03-30T14:41:24.874-05:00,2026-03-30T10:54:16.334-05:00,3805,1.355992,0,0,2567.05,4,4,2026-03-30T14:40:59.141-05:00,796592500.3800651,0,0.9000015,99.59051,1,0.9,2026-03-30T14:37:50.703-05:00,72,1.2,2026-03-30T12:48:13.834-05:00,0.1236805929763694
2026-03-30T14:41:41.308-05:00,1774899701.000289,30.28874300237514,-97.73758551542419,174.2193,1.22633,0.4689149,244.2502967953242,24.51879110136377,3,12.74353413785483,-9999,135431.940236625,1.092453002929688,-0.203826904296875,0.968994140625,135431.906313625,0.9896312267659914,2.434874764162392,-0.06941242501880969,0.1759085655212402,2.0638747215271,-0.3721208274364471,1.029071807861328,-0.3071191608905792,0.1740581393241882,XArbitraryZVertical,-0.455829032991452,0.8194833121690945,0.135579599413045,0.3198207184753333,0.6477777361869812,0.06935670226812363,0.7586660385131836,0,0,0,-1,-1,135415.506766125,unknown,2,2026-03-30T14:41:24.874-05:00,2026-03-30T10:54:16.334-05:00,3805,1.355992,0,0,2567.05,4,4,2026-03-30T14:40:59.141-05:00,796592500.3800651,0,0.9000015,99.59051,1,0.9,2026-03-30T14:37:50.703-05:00,72,1.2,2026-03-30T12:48:13.834-05:00,0.1236805929763694
2026-03-30T14:41:41.344-05:00,1774899701.000289,30.28874300237514,-97.73758551542419,174.2193,1.22633,0.4689149,244.2502967953242,24.51879110136377,3,12.74353413785483,-9999,135431.974162625,0.669464111328125,-0.1307830810546875,1.216476440429688,135431.966624625,1.013907205936163,2.530918854895781,-0.09082816477062508,-0.6580312252044678,1.030660390853882,-0.5771441459655762,0.2500346899032593,-0.5095723271369934,0.3576686978340149,XArbitraryZVertical,-0.474512580730382,0.8263051971055968,0.1079499245974692,0.2835567586831828,0.571056067943573,0.0907033309340477,0.8158849477767944,0,0,0,-1,-1,135415.506766125,unknown,2,2026-03-30T14:41:24.874-05:00,2026-03-30T10:54:16.334-05:00,3805,1.355992,0,0,2567.05,4,4,2026-03-30T14:40:59.141-05:00,796592500.3800651,0,0.9000015,99.59051,1,0.9,2026-03-30T14:37:50.703-05:00,72,1.2,2026-03-30T12:48:13.834-05:00,0.1236805929763694
2026-03-30T14:41:41.378-05:00,1774899701.000289,30.28874300237514,-97.73758551542419,174.2193,1.22633,0.4689149,244.2502967953242,24.51879110136377,3,12.74353413785483,-9999,135432.008087625,0.731964111328125,-0.059661865234375,1.008499145507812,135431.996779625,1.021144033671177,2.535702875380373,-0.1106654230367685,1.094584822654724,-0.796124279499054,-0.5851460695266724,0.2289880514144897,-0.0657619908452034,0.143558144569397,XArbitraryZVertical,-0.480104152225979,0.823397618998856,0.09951083997716917,0.2856814025674933,0.5660098791122437,0.1104396805167198,0.816967248916626,0,0,0,-1,-1,135415.506766125,unknown,2,2026-03-30T14:41:24.874-05:00,2026-03-30T10:54:16.334-05:00,3805,1.355992,0,0,2567.05,4,4,2026-03-30T14:40:59.141-05:00,796592500.3800651,0,0.9000015,99.59051,1,0.9,2026-03-30T14:37:50.703-05:00,72,1.2,2026-03-30T12:48:13.834-05:00,0.1236805929763694
2026-03-30T14:41:41.414-05:00,1774899701.000289,30.28874300237514,-97.73758551542419,174.2193,1.22633,0.4689149,244.2502967953242,24.51879110136377,3,12.74353413785483,-9999,135432.042013625,0.4074859619140625,-0.3732757568359375,1.057098388671875,135432.026935625,1.02075209369974,2.488839624568525,-0.1350586813159877,-0.07647270709276199,-2.089391708374023,-0.3906156718730927,0.007621884346008301,-0.376866489648819,0.2696282267570496,XArbitraryZVertical,-0.4805399633878107,0.8140463996689566,0.1004936863013298,0.3103399591504164,0.6018447279930115,0.1346484571695328,0.7871804237365723,0,0,0,-1,-1,135415.506766125,unknown,2,2026-03-30T14:41:24.874-05:00,2026-03-30T10:54:16.334-05:00,3805,1.355992,0,0,2567.05,4,4,2026-03-30T14:40:59.141-05:00,796592500.3800651,0,0.9000015,99.59051,1,0.9,2026-03-30T14:37:50.703-05:00,72,1.2,2026-03-30T12:48:13.834-05:00,0.1236805929763694
2026-03-30T14:41:41.444-05:00,1774899701.000289,30.28874300237514,-97.73758551542419,174.2193,1.22633,0.4689149,244.2502967953242,24.51879110136377,3,12.74353413785483,-9999,135432.075936625,0.3254852294921875,-0.1462249755859375,0.8477325439453125,135432.057090625,1.04094153534219,2.415901411188799,-0.1296509499475668,-0.6856160163879395,-2.957802295684814,-0.4302133023738861,-0.242662250995636,-0.4588473737239838,0.2776923775672913,XArbitraryZVertical,-0.483882120681391,0.7979595755499859,0.1235919753174711,0.3374074142998885,0.6580828428268433,0.1292880326509476,0.7417627573013306,0,0,0,-1,-1,135415.506766125,unknown,2,2026-03-30T14:41:24.874-05:00,2026-03-30T10:54:16.334-05:00,3805,1.355992,0,0,2567.05,4,4,2026-03-30T14:40:59.141-05:00,796592500.3800651,0,0.9000015,99.59051,1,0.9,2026-03-30T14:37:50.703-05:00,72,1.2,2026-03-30T12:48:13.834-05:00,0.1236805929763694
2026-03-30T14:41:41.479-05:00,1774899701.000289,30.28874300237514,-97.73758551542419,174.2193,1.22633,0.4689149,244.2502967953242,24.51879110136377,3,12.74353413785483,-9999,135432.109861625,0.350616455078125,-0.34588623046875,0.945770263671875,135432.087246625,1.061177498898598,2.31576777516158,-0.1342424419485533,-0.3220263123512268,-3.838025331497192,-0.6805620193481445,-0.4135369062423706,-0.2740374207496643,0.1639183163642883,XArbitraryZVertical,-0.4856814441429688,0.7746219474480855,0.1496189647450485,0.3764153225107859,0.7284934520721436,0.1338396072387695,0.6718512773513794,0,0,0,-1,-1,135415.506766125,unknown,2,2026-03-30T14:41:24.874-05:00,2026-03-30T10:54:16.334-05:00,3805,1.355992,0,0,2567.05,4,4,2026-03-30T14:40:59.141-05:00,796592500.3800651,0,0.9000015,99.59051,1,0.9,2026-03-30T14:37:50.703-05:00,72,1.2,2026-03-30T12:48:13.834-05:00,0.1236805929763694
2026-03-30T14:41:41.515-05:00,1774899701.000289,30.28874300237514,-97.73758551542419,174.2193,1.22633,0.4689149,244.2502967953242,24.51879110136377,3,12.74353413785483,-9999,135432.143787625,0.4035797119140625,-0.12579345703125,0.78448486328125,135432.117401625,1.093516538039355,2.193758922794455,-0.1339840413581746,-1.255728721618652,-4.374961853027344,-0.4756064116954803,-0.4610331058502197,-0.4854512214660645,0.369600236415863,XArbitraryZVertical,-0.4876781425490474,0.7424805828445105,0.1858661029275336,0.4199362613159192,0.8048747181892395,0.1335835307836533,0.5782147645950317,0,0,0,-1,-1,135415.506766125,unknown,2,2026-03-30T14:41:24.874-05:00,2026-03-30T10:54:16.334-05:00,3805,1.355992,0,0,2567.05,4,4,2026-03-30T14:40:59.141-05:00,796592500.3800651,0,0.9000015,99.59051,1,0.9,2026-03-30T14:37:50.703-05:00,72,1.2,2026-03-30T12:48:13.834-05:00,0.1236805929763694
