loggingTime(txt),locationTimestamp_since1970(s),locationLatitude(WGS84),locationLongitude(WGS84),locationAltitude(m),locationSpeed(m/s),locationSpeedAccuracy(m/s),locationCourse(°),locationCourseAccuracy(°),locationVerticalAccuracy(m),locationHorizontalAccuracy(m),locationFloor(Z),accelerometerTimestamp_sinceReboot(s),accelerometerAccelerationX(G),accelerometerAccelerationY(G),accelerometerAccelerationZ(G),motionTimestamp_sinceReboot(s),motionYaw(rad),motionRoll(rad),motionPitch(rad),motionRotationRateX(rad/s),motionRotationRateY(rad/s),motionRotationRateZ(rad/s),motionUserAccelerationX(G),motionUserAccelerationY(G),motionUserAccelerationZ(G),motionAttitudeReferenceFrame(txt),motionQuaternionX(R),motionQuaternionY(R),motionQuaternionZ(R),motionQuaternionW(R),motionGravityX(G),motionGravityY(G),motionGravityZ(G),motionMagneticFieldX(µT),motionMagneticFieldY(µT),motionMagneticFieldZ(µT),motionHeading(°),motionMagneticFieldCalibrationAccuracy(Z),activityTimestamp_sinceReboot(s),activity(txt),activityActivityConfidence(Z),activityActivityStartDate(txt),pedometerStartDate(txt),pedometerNumberofSteps(N),pedometerAverageActivePace(s/m),pedometerCurrentPace(s/m),pedometerCurrentCadence(steps/s),pedometerDistance(m),pedometerFloorAscended(N),pedometerFloorDescended(N),pedometerEndDate(txt),altimeterTimestamp_sinceReboot(s),altimeterReset(bool),altimeterRelativeAltitude(m),altimeterPressure(kPa),batteryState(N),batteryLevel(R),heartRateBPMTimestamp(txt),heartRateBPM(N),heartRateBPS(R),heartRateVariabilityTimestamp(txt),heartRateVariability(ms)
2026-03-30T14:39:59.162-05:00,1774899598.768516,30.28870849192032,-97.73750388094332,174.3306,0.3348482,0.4546488,-1,-1,3,20.30515479048169,-9999,135329.7925215,0.7424468994140625,0.39764404296875,-0.530792236328125,135329.7699055,-3.03574445613593,0.9475147561325713,-0.4080324728997351,0.003851141780614853,-0.00127593195065856,0.002876782789826393,-0.003226876258850098,-0.001357376575469971,0.006440043449401855,XArbitraryZVertical,0.4366083880303703,0.2036706626121463,-0.8750749275303336,-0.04620836199029392,0.7453075051307678,0.3968040943145752,-0.5357827544212341,0,0,0,-1,-1,135295.5958457917,walking,2,2026-03-30T14:39:18.784-05:00,2026-03-30T10:54:16.334-05:00,3789,1.345529,0,0,2555.308,4,4,2026-03-30T14:39:52.236-05:00,796592397.4437155,0,-0.3199997,99.60518,1,0.9,2026-03-30T14:37:50.703-05:00,72,1.2,2026-03-30T12:48:13.834-05:00,0.1236805929763694
2026-03-30T14:39:59.197-05:00,1774899598.768516,30.28870849192032,-97.73750388094332,174.3306,0.3348482,0.4546488,-1,-1,3,20.30515479048169,-9999,135329.8264465,0.742767333984375,0.396514892578125,-0.5319976806640625,135329.8000615,-3.03581284849817,0.9474061321431203,-0.4078897261276557,0.0005972024518996477,0.0003148992545902729,0.001026414334774017,-0.003748714923858643,0.0008183121681213379,0.005195975303649902,XArbitraryZVertical,0.4365776966639617,0.2035964807619507,-0.8751082331184182,-0.04619470138666757,0.7452953457832336,0.3966730535030365,-0.5358967781066895,0,0,0,-1,-1,135295.5958457917,walking,2,2026-03-30T14:39:18.784-05:00,2026-03-30T10:54:16.334-05:00,3789,1.345529,0,0,2555.308,4,4,2026-03-30T14:39:52.236-05:00,796592397.4437155,0,-0.3199997,99.60518,1,0.9,2026-03-30T14:37:50.703-05:00,72,1.2,2026-03-30T12:48:13.834-05:00,0.1236805929763694
2026-03-30T14:39:59.232-05:00,1774899598.768516,30.28870849192032,-97.73750388094332,174.3306,0.3348482,0.4546488,-1,-1,3,20.30515479048169,-9999,135329.8603725,0.7418975830078125,0.3972930908203125,-0.5331573486328125,135329.8302165,-3.035800074566114,0.947360213556557,-0.4079039383406499,-0.0003215435426682234,-0.0006818915717303753,-0.001808081171475351,-0.002254724502563477,-0.000613778829574585,0.003975749015808105,XArbitraryZVertical,0.4365553121113925,0.2036064764261822,-0.8751174808264517,-0.04618766211275141,0.7452661395072937,0.3966861069202423,-0.5359277129173279,0,0,0,-1,-1,135295.5958457917,walking,2,2026-03-30T14:39:18.784-05:00,2026-03-30T10:54:16.334-05:00,3789,1.345529,0,0,2555.308,4,4,2026-03-30T14:39:52.236-05:00,796592397.4437155,0,-0.3199997,99.60518,1,0.9,2026-03-30T14:37:50.703-05:00,72,1.2,2026-03-30T12:48:13.834-05:00,0.1236805929763694
2026-03-30T14:39:59.262-05:00,1774899598.768516,30.28870849192032,-97.73750388094332,174.3306,0.3348482,0.4546488,-1,-1,3,20.30515479048169,-9999,135329.8942955,0.74041748046875,0.395538330078125,-0.5334930419921875,135329.8603725,-3.035868406282684,0.9473616854108076,-0.4078421079365439,0.001196169760078192,0.003173804841935635,0.001424079178832471,-0.002550065517425537,0.003044039011001587,0.002997159957885742,XArbitraryZVertical,0.4365671969186376,0.2035647767552394,-0.8751203752532362,-0.04620363869991687,0.7452868223190308,0.3966293632984161,-0.535940945148468,0,0,0,-1,-1,135295.5958457917,walking,2,2026-03-30T14:39:18.784-05:00,2026-03-30T10:54:16.334-05:00,3789,1.345529,0,0,2555.308,4,4,2026-03-30T14:39:52.236-05:00,796592397.4437155,0,-0.3199997,99.60518,1,0.9,2026-03-30T14:37:50.703-05:00,72,1.2,2026-03-30T12:48:13.834-05:00,0.1236805929763694
2026-03-30T14:39:59.298-05:00,1774899598.768516,30.28870849192032,-97.73750388094332,174.3306,0.3348482,0.4546488,-1,-1,3,20.30515479048169,-9999,135329.9282215,0.7403106689453125,0.3907470703125,-0.53411865234375,135329.9206835,-3.036069152929123,0.947326248353861,-0.4076393850596137,0.006989188492298126,0.000781418289989233,-0.0006463425816036761,-0.00415271520614624,-0.001377999782562256,0.001590371131896973,XArbitraryZVertical,0.4365861313193911,0.2034340599096429,-0.8751393022626733,-0.04624169764595963,0.7453330755233765,0.396443247795105,-0.5360142588615417,0,0,0,-1,-1,135295.5958457917,walking,2,2026-03-30T14:39:18.784-05:00,2026-03-30T10:54:16.334-05:00,3789,1.345529,0,0,2555.308,4,4,2026-03-30T14:39:52.236-05:00,796592397.4437155,0,-0.3199997,99.60518,1,0.9,2026-03-30T14:37:50.703-05:00,72,1.2,2026-03-30T12:48:13.834-05:00,0.1236805929763694
2026-03-30T14:39:59.333-05:00,1774899598.768516,30.28870849192032,-97.73750388094332,174.3306,0.3348482,0.4546488,-1,-1,3,20.30515479048169,-9999,135329.9621465,0.7415313720703125,0.3941192626953125,-0.5357208251953125,135329.9508385,-3.036079740081765,0.9473136663404466,-0.4076616423081879,-0.0007342002354562283,-5.467655137181282e-05,-0.0002421803510515019,-0.001361727714538574,-0.004755407571792603,0.002937376499176025,XArbitraryZVertical,0.4365801813923006,0.203441674755472,-0.8751399925025433,-0.04625014362589221,0.745319128036499,0.3964636921882629,-0.536018431186676,0,0,0,-1,-1,135295.5958457917,walking,2,2026-03-30T14:39:18.784-05:00,2026-03-30T10:54:16.334-05:00,3789,1.345529,0,0,2555.308,4,4,2026-03-30T14:39:52.236-05:00,796592397.4437155,0,-0.3199997,99.60518,1,0.9,2026-03-30T14:37:50.703-05:00,72,1.2,2026-03-30T12:48:13.834-05:00,0.1236805929763694
2026-03-30T14:39:59.370-05:00,1774899598.768516,30.28870849192032,-97.73750388094332,174.3306,0.3348482,0.4546488,-1,-1,3,20.30515479048169,-9999,135329.9960715,0.743804931640625,0.3935089111328125,-0.534454345703125,135329.9809945,-3.036057311923049,0.9473252157138595,-0.4076765408504209,-0.001491181785240769,-0.000893530435860157,-8.929801697377115e-05,-0.001729369163513184,-0.004814863204956055,0.002025067806243896,XArbitraryZVertical,0.4365819145193139,0.2034527475558024,-0.8751368689143763,-0.04624488431319596,0.7453205585479736,0.3964773714542389,-0.5360064506530762,0,0,0,-1,-1,135295.5958457917,walking,2,2026-03-30T14:39:18.784-05:00,2026-03-30T10:54:16.334-05:00,3789,1.345529,0,0,2555.308,4,4,2026-03-30T14:39:52.236-05:00,796592397.4437155,0,-0.3199997,99.60518,1,0.9,2026-03-30T14:37:50.703-05:00,72,1.2,2026-03-30T12:48:13.834-05:00,0.1236805929763694
2026-03-30T14:39:59.399-05:00,1774899598.768516,30.28870849192032,-97.73750388094332,174.3306,0.3348482,0.4546488,-1,-1,3,20.30515479048169,-9999,135330.0299955,0.743988037109375,0.3950653076171875,-0.5328826904296875,135330.0111495,-3.036009406719836,0.9473375933242006,-0.4077213929449344,-0.002984682563692331,0.00132538890466094,-0.0008140075951814651,-0.002499759197235107,-0.0002020597457885742,0.003607630729675293,XArbitraryZVertical,0.4365793386669159,0.2034823208561845,-0.8751318539469743,-0.04623537126935976,0.7453128099441528,0.3965185284614563,-0.5359868407249451,0,0,0,-1,-1,135295.5958457917,walking,2,2026-03-30T14:39:18.784-05:00,2026-03-30T10:54:16.334-05:00,3789,1.345529,0,0,2555.308,4,4,2026-03-30T14:39:52.236-05:00,796592397.4437155,0,-0.3199997,99.60518,1,0.9,2026-03-30T14:37:50.703-05:00,72,1.2,2026-03-30T12:48:13.834-05:00,0.1236805929763694
2026-03-30T14:39:59.433-05:00,1774899598.768516,30.28870849192032,-97.73750388094332,174.3306,0.3348482,0.4546488,-1,-1,3,20.30515479048169,-9999,135330.0639205,0.7429962158203125,0.39495849609375,-0.5302581787109375,135330.0413055,-3.035926383891236,0.9473927818192797,-0.4077797423750336,-0.0005390571895986795,0.0006002944428473711,-0.002642500214278698,-0.001366138458251953,-0.00179678201675415,0.00414806604385376,XArbitraryZVertical,0.4365910025080775,0.2035244145217261,-0.8751171820224274,-0.04621794565960534,0.7453235983848572,0.3965721130371094,-0.5359322428703308,0,0,0,-1,-1,135295.5958457917,walking,2,2026-03-30T14:39:18.784-05:00,2026-03-30T10:54:16.334-05:00,3789,1.345529,0,0,2555.308,4,4,2026-03-30T14:39:52.236-05:00,796592397.4437155,0,-0.3199997,99.60518,1,0.9,2026-03-30T14:37:50.703-05:00,72,1.2,2026-03-30T12:48:13.834-05:00,0.1236805929763694
2026-03-30T14:39:59.469-05:00,1774899598.768516,30.28870849192032,-97.73750388094332,174.3306,0.3348482,0.4546488,-1,-1,3,20.30515479048169,-9999,135330.0978465,0.740325927734375,0.3953094482421875,-0.531890869140625,135330.0714605,-3.035945097726187,0.9473958878640151,-0.4077577182597867,-0.0008095011580735445,6.820820271968842e-05,-0.0004111389280296862,-0.001878440380096436,-0.001669764518737793,0.004761219024658203,XArbitraryZVertical,0.436595789183832,0.2035107283723308,-0.8751177893158343,-0.04622143402826991,0.7453323602676392,0.3965518772602081,-0.5359349846839905,0,0,0,-1,-1,135295.5958457917,walking,2,2026-03-30T14:39:18.784-05:00,2026-03-30T10:54:16.334-05:00,3789,1.345529,0,0,2555.308,4,4,2026-03-30T14:39:52.236-05:00,796592397.4437155,0,-0.3199997,99.60518,1,0.9,2026-03-30T14:37:50.703-05:00,72,1.2,2026-03-30T12:48:13.834-05:00,0.1236805929763694
2026-03-30T14:39:59.503-05:00,1774899598.768516,30.28870849192032,-97.73750388094332,174.3306,0.3348482,0.4546488,-1,-1,3,20.30515479048169,-9999,135330.1317715,0.7392578125,0.397308349609375,-0.5316619873046875,135330.1016155,-3.035954199485817,0.9474130021349568,-0.4077533053083212,-0.006722672842442989,-0.0018453155644238,-0.001982154557481408,-0.004483044147491455,-0.001070618629455566,0.004673182964324951,XArbitraryZVertical,0.436604504857753,0.2035064354617675,-0.8751142055333515,-0.04622614699026012,0.7453429698944092,0.3965478241443634,-0.5359233021736145,0,0,0,-1,-1,135295.5958457917,walking,2,2026-03-30T14:39:18.784-05:00,2026-03-30T10:54:16.334-05:00,3789,1.345529,0,0,2555.308,4,4,2026-03-30T14:39:52.236-05:00,796592397.4437155,0,-0.3199997,99.60518,1,0.9,2026-03-30T14:37:50.703-05:00,72,1.2,2026-03-30T12:48:13.834-05:00,0.1236805929763694
2026-03-30T14:39:59.536-05:00,1774899598.768516,30.28870849192032,-97.73750388094332,174.3306,0.3348482,0.4546488,-1,-1,3,20.30515479048169,-9999,135330.1656945,0.7430572509765625,0.3979949951171875,-0.536346435546875,135330.1317715,-3.0357282138125,0.9474805883029268,-0.4079121287642716,-0.003720602486282587,-4.60413284599781e-05,-0.0005986254545859993,-0.005963444709777832,-0.0003008246421813965,0.003884077072143555,XArbitraryZVertical,0.4366000899858659,0.2036229245642835,-0.8750922667990796,-0.04617032617080655,0.7453280687332153,0.396693617105484,-0.5358361601829529,0,0,0,-1,-1,135295.5958457917,walking,2,2026-03-30T14:39:18.784-05:00,2026-03-30T10:54:16.334-05:00,3789,1.345529,0,0,2555.308,4,4,2026-03-30T14:39:52.236-05:00,796592397.4437155,0,-0.3199997,99.60518,1,0.9,2026-03-30T14:37:50.703-05:00,72,1.2,2026-03-30T12:48:13.834-05:00,0.1236805929763694
2026-03-30T14:39:59.569-05:00,1774899598.768516,30.28870849192032,-97.73750388094332,174.3306,0.3348482,0.4546488,-1,-1,3,20.30515479048169,-9999,135330.1996205,0.742431640625,0.3948822021484375,-0.5340118408203125,135330.1920825,-3.035828010608248,0.9475050716839555,-0.4078435818774264,-0.001177217229269445,-4.992354661226273e-05,-0.0002549255441408604,-0.003816604614257812,-0.002770900726318359,0.0004637241363525391,XArbitraryZVertical,0.4366257377951345,0.2035709244584278,-0.8750898239780743,-0.04620091575589491,0.745363175868988,0.3966307044029236,-0.5358337163925171,0,0,0,-1,-1,135295.5958457917,walking,2,2026-03-30T14:39:18.784-05:00,2026-03-30T10:54:16.334-05:00,3789,1.345529,0,0,2555.308,4,4,2026-03-30T14:39:52.236-05:00,796592397.4437155,0,-0.3199997,99.60518,1,0.9,2026-03-30T14:37:50.703-05:00,72,1.2,2026-03-30T12:48:13.834-05:00,0.1236805929763694
2026-03-30T14:39:59.604-05:00,1774899598.768516,30.28870849192032,-97.73750388094332,174.3306,0.3348482,0.4546488,-1,-1,3,20.30515479048169,-9999,135330.2335455,0.74224853515625,0.39532470703125,-0.53082275390625,135330.2222375,-3.035812657533006,0.9475167560962447,-0.4078800662175256,0.0003688365686684847,-0.001810316927731037,0.0007945544784888625,-0.001323938369750977,-0.001690506935119629,0.005466699600219727,XArbitraryZVertical,0.436626757930675,0.2035897900181325,-0.8750848024942176,-0.04620369138931312,0.7453576922416687,0.3966642022132874,-0.5358165502548218,0,0,0,-1,-1,135295.5958457917,walking,2,2026-03-30T14:39:18.784-05:00,2026-03-30T10:54:16.334-05:00,3789,1.345529,0,0,2555.308,4,4,2026-03-30T14:39:52.236-05:00,796592397.4437155,0,-0.3199997,99.60518,1,0.9,2026-03-30T14:37:50.703-05:00,72,1.2,2026-03-30T12:48:13.834-05:00,0.1236805929763694
2026-03-30T14:39:59.639-05:00,1774899598.768516,30.28870849192032,-97.73750388094332,174.3306,0.3348482,0.4546488,-1,-1,3,20.30515479048169,-9999,135330.26747075,0.7396697998046875,0.393218994140625,-0.5316009521484375,135330.25239275,-3.035770780997591,0.9474840974518925,-0.4078631372597399,-0.00264042429625988,-0.001129148993641138,0.001772386836819351,-0.003051400184631348,-0.002285361289978027,0.004396378993988037,XArbitraryZVertical,0.4366093891662772,0.2035923651768696,-0.8750941665189789,-0.04617820513320756,0.7453455924987793,0.396648645401001,-0.5358448028564453,0,0,0,-1,-1,135295.5958457917,walking,2,2026-03-30T14:39:18.784-05:00,2026-03-30T10:54:16.334-05:00,3789,1.345529,0,0,2555.308,4,4,2026-03-30T14:39:52.236-05:00,796592397.4437155,0,-0.3199997,99.60518,1,0.9,2026-03-30T14:37:50.703-05:00,72,1.2,2026-03-30T12:48:13.834-05:00,0.1236805929763694
2026-03-30T14:39:59.670-05:00,1774899598.768516,30.28870849192032,-97.73750388094332,174.3306,0.3348482,0.4546488,-1,-1,3,20.30515479048169,-9999,135330.30139375,0.7406463623046875,0.3994903564453125,-0.5353240966796875,135330.28254775,-3.035658183368436,0.9474645100239381,-0.4079167773092413,-0.00759294955059886,-0.002516586799174547,-0.001190832117572427,-0.002703189849853516,-0.002441436052322388,0.001667201519012451,XArbitraryZVertical,0.4365856431166081,0.2036406047580439,-0.8750968520436802,-0.046139163991976,0.745317816734314,0.3966979086399078,-0.5358469486236572,0,0,0,-1,-1,135295.5958457917,walking,2,2026-03-30T14:39:18.784-05:00,2026-03-30T10:54:16.334-05:00,3789,1.345529,0,0,2555.308,4,4,2026-03-30T14:39:52.236-05:00,796592397.4437155,0,-0.3199997,99.60518,1,0.9,2026-03-30T14:37:50.703-05:00,72,1.2,2026-03-30T12:48:13.834-05:00,0.1236805929763694
2026-03-30T14:39:59.705-05:00,1774899598.768516,30.28870849192032,-97.73750388094332,174.3306,0.3348482,0.4546488,-1,-1,3,20.30515479048169,-9999,135330.33531875,0.741424560546875,0.398956298828125,-0.5355377197265625,135330.31270375,-3.035627400673291,0.947479422998711,-0.4079693891957862,0.0007463616784662008,0.001661688322201371,-0.001633698935620487,-0.005379796028137207,0.002072691917419434,-0.001316249370574951,XArbitraryZVertical,0.436585375676607,0.2036697386960006,-0.8750902679691795,-0.04613917669164064,0.7453089356422424,0.3967461884021759,-0.5358237028121948,0,0,0,-1,-1,135295.5958457917,walking,2,2026-03-30T14:39:18.784-05:00,2026-03-30T10:54:16.334-05:00,3789,1.345529,0,0,2555.308,4,4,2026-03-30T14:39:52.236-05:00,796592397.4437155,0,-0.3199997,99.60518,1,0.9,2026-03-30T14:37:50.703-05:00,72,1.2,2026-03-30T12:48:13.834-05:00,0.1236805929763694
2026-03-30T14:39:59.740-05:00,1774899598.768516,30.28870849192032,-97.73750388094332,174.3306,0.3348482,0.4546488,-1,-1,3,20.30515479048169,-9999,135330.36924475,0.7401123046875,0.3940887451171875,-0.5316314697265625,135330.34285875,-3.035731332065041,0.9475310252479578,-0.4079109551611225,0.006439312361180782,0.002731311600655317,-6.889307405799627e-05,-0.004907488822937012,0.001760095357894897,0.0003373026847839355,XArbitraryZVertical,0.4366225887444284,0.2036205799935114,-0.875081135255854,-0.0461766036672533,0.7453553676605225,0.3966925442218781,-0.5357987284660339,0,0,0,-1,-1,135295.5958457917,walking,2,2026-03-30T14:39:18.784-05:00,2026-03-30T10:54:16.334-05:00,3789,1.345529,0,0,2555.308,4,4,2026-03-30T14:39:52.236-05:00,796592397.4437155,0,-0.3199997,99.60518,1,0.9,2026-03-30T14:37:50.703-05:00,72,1.2,2026-03-30T12:48:13.834-05:00,0.1236805929763694
2026-03-30T14:39:59.775-05:00,1774899598.768516,30.28870849192032,-97.73750388094332,174.3306,0.3348482,0.4546488,-1,-1,3,20.30515479048169,-9999,135330.40316975,0.7445220947265625,0.3958587646484375,-0.5298919677734375,135330.37301475,-3.03580621004334,0.9475562344432797,-0.4078669670965226,-0.0009323619306087494,0.002012653043493629,-0.0006869072094559669,-0.004614710807800293,-0.001953154802322388,0.003838241100311279,XArbitraryZVertical,0.4366442755062385,0.2035846167427133,-0.8750773812634188,-0.04620189645016551,0.745383083820343,0.3966521620750427,-0.5357901453971863,0,0,0,-1,-1,135295.5958457917,walking,2,2026-03-30T14:39:18.784-05:00,2026-03-30T10:54:16.334-05:00,3789,1.345529,0,0,2555.308,4,4,2026-03-30T14:39:52.236-05:00,796592397.4437155,0,-0.3199997,99.60518,1,0.9,2026-03-30T14:37:50.703-05:00,72,1.2,2026-03-30T12:48:13.834-05:00,0.1236805929763694
2026-03-30T14:39:59.805-05:00,1774899598.768516,30.28870849192032,-97.73750388094332,174.3306,0.3348482,0.4546488,-1,-1,3,20.30515479048169,-9999,135330.43709375,0.744354248046875,0.396636962890625,-0.5337066650390625,135330.40316975,-3.035752904775011,0.9475554514286335,-0.4079525594046644,-0.0005495545919984579,0.0005550626665353775,-0.0007487094262614846,-0.0009703636169433594,-0.001467138528823853,0.006138324737548828,XArbitraryZVertical,0.4366325755274781,0.2036333015167004,-0.8750721331999737,-0.046197982662145,0.7453551292419434,0.3967307507991791,-0.5357709527015686,0,0,0,-1,-1,135295.5958457917,walking,2,2026-03-30T14:39:18.784-05:00,2026-03-30T10:54:16.334-05:00,3789,1.345529,0,0,2555.308,4,4,2026-03-30T14:39:52.236-05:00,796592397.4437155,0,-0.3199997,99.60518,1,0.9,2026-03-30T14:37:50.703-05:00,72,1.2,2026-03-30T12:48:13.834-05:00,0.1236805929763694
2026-03-30T14:39:59.841-05:00,1774899599.768516,30.28870405898641,-97.73751622402015,174.0551,0.1597846,0.4187267,-1,-1,3,15.84175934995874,-9999,135330.47101875,0.743988037109375,0.3940887451171875,-0.5349884033203125,135330.46348075,-3.035924558480138,0.9474359749983644,-0.4077864650187419,0.001325865741819143,0.0009034599643200636,0.0008171447552740574,-0.0008072853088378906,-0.001986056566238403,0.001001536846160889,XArbitraryZVertical,0.4366092484027658,0.2035267227431015,-0.8751072831102746,-0.04622306955976901,0.7453445792198181,0.3965782821178436,-0.5358984470367432,0,0,0,-1,-1,135295.5958457917,walking,2,2026-03-30T14:39:18.784-05:00,2026-03-30T10:54:16.334-05:00,3789,1.345529,0,0,2555.308,4,4,2026-03-30T14:39:52.236-05:00,796592397.4437155,0,-0.3199997,99.60518,1,0.9,2026-03-30T14:37:50.703-05:00,72,1.2,2026-03-30T12:48:13.834-05:00,0.1236805929763694
2026-03-30T14:39:59.875-05:00,1774899599.768516,30.28870405898641,-97.73751622402015,174.0551,0.1597846,0.4187267,-1,-1,3,15.84175934995874,-9999,135330.50494375,0.7419891357421875,0.3926239013671875,-0.53326416015625,135330.49363675,-3.03592130617634,0.947543692491441,-0.4077926048421263,0.0004620472900569439,0.001771128736436367,-0.000958008342422545,-0.002602517604827881,-0.002037465572357178,0.002995014190673828,XArbitraryZVertical,0.4366556254430792,0.20352759972429,-0.8750833576621132,-0.04623400844378932,0.7454003691673279,0.3965839147567749,-0.5358167886734009,0,0,0,-1,-1,135295.5958457917,walking,2,2026-03-30T14:39:18.784-05:00,2026-03-30T10:54:16.334-05:00,3789,1.345529,0,0,2555.308,4,4,2026-03-30T14:39:52.236-05:00,796592397.4437155,0,-0.3199997,99.60518,1,0.9,2026-03-30T14:37:50.703-05:00,72,1.2,2026-03-30T12:48:13.834-05:00,0.1236805929763694
2026-03-30T14:39:59.910-05:00,1774899599.768516,30.28870405898641,-97.73751622402015,174.0551,0.1597846,0.4187267,-1,-1,3,15.84175934995874,-9999,135330.53886975,0.738739013671875,0.3934173583984375,-0.5327301025390625,135330.52379175,-3.035843537500403,0.947633548650384,-0.4079100616399352,-0.0008881976827979088,-0.0004763687029480934,-0.001663395203649998,-0.003024816513061523,-0.004098445177078247,0.005983114242553711,XArbitraryZVertical,0.4366789301838033,0.2035933273020711,-0.8750562328503382,-0.04623592990674648,0.7454105615615845,0.3966917395591736,-0.535722553730011,0,0,0,-1,-1,135295.5958457917,walking,2,2026-03-30T14:39:18.784-05:00,2026-03-30T10:54:16.334-05:00,3789,1.345529,0,0,2555.308,4,4,2026-03-30T14:39:52.236-05:00,796592397.4437155,0,-0.3199997,99.60518,1,0.9,2026-03-30T14:37:50.703-05:00,72,1.2,2026-03-30T12:48:13.834-05:00,0.1236805929763694
2026-03-30T14:39:59.941-05:00,1774899599.768516,30.28870405898641,-97.73751622402015,174.0551,0.1597846,0.4187267,-1,-1,3,15.84175934995874,-9999,135330.57279275,0.7437744140625,0.3952484130859375,-0.53411865234375,135330.55394675,-3.035845873206693,0.9476248317585445,-0.4079029466263834,0.0009518689475953579,0.0006556438747793436,-0.000102182588307187,-0.004990816116333008,-0.003664642572402954,0.002985239028930664,XArbitraryZVertical,0.4366758316415695,0.2035899367359544,-0.8750587028921024,-0.04623442237945347,0.7454082369804382,0.3966852128505707,-0.5357307195663452,0,0,0,-1,-1,135295.5958457917,walking,2,2026-03-30T14:39:18.784-05:00,2026-03-30T10:54:16.334-05:00,3789,1.345529,0,0,2555.308,4,4,2026-03-30T14:39:52.236-05:00,796592397.4437155,0,-0.3199997,99.60518,1,0.9,2026-03-30T14:37:50.703-05:00,72,1.2,2026-03-30T12:48:13.834-05:00,0.1236805929763694
2026-03-30T14:39:59.976-05:00,1774899599.768516,30.28870405898641,-97.73751622402015,174.0551,0.1597846,0.4187267,-1,-1,3,15.84175934995874,-9999,135330.60671875,0.7443695068359375,0.3952484130859375,-0.531463623046875,135330.58410275,-3.035899821548055,0.9475994502314008,-0.4078186839302005,0.003298979252576828,0.0009095561690628529,0.001328619662672281,-0.001555860042572021,0.0003037154674530029,0.001955568790435791,XArbitraryZVertical,0.4366760498018284,0.2035422895755346,-0.8750695630039136,-0.04623625007373545,0.7454217672348022,0.3966078460216522,-0.5357691049575806,0,0,0,-1,-1,135295.5958457917,walking,2,2026-03-30T14:39:18.784-05:00,2026-03-30T10:54:16.334-05:00,3789,1.345529,0,0,2555.308,4,4,2026-03-30T14:39:52.236-05:00,796592397.4437155,0,-0.3199997,99.60518,1,0.9,2026-03-30T14:37:50.703-05:00,72,1.2,2026-03-30T12:48:13.834-05:00,0.1236805929763694
2026-03-30T14:40:00.012-05:00,1774899599.768516,30.28870405898641,-97.73751622402015,174.0551,0.1597846,0.4187267,-1,-1,3,15.84175934995874,-9999,135330.64064375,0.7377166748046875,0.401641845703125,-0.532745361328125,135330.61425775,-3.035780919978909,0.9477025506210933,-0.407826729320465,-0.006027410738170147,0.001829145709052682,-0.0008088333997875452,-0.001501679420471191,-0.001565277576446533,0.004409849643707275,XArbitraryZVertical,0.4367085155681994,0.2035693533708575,-0.875049106908554,-0.04619657421640742,0.7454743981361389,0.3966152369976044,-0.5356903672218323,0,0,0,-1,-1,135295.5958457917,walking,2,2026-03-30T14:39:18.784-05:00,2026-03-30T10:54:16.334-05:00,3789,1.345529,0,0,2555.308,4,4,2026-03-30T14:39:52.236-05:00,796592397.4437155,0,-0.3199997,99.60518,1,0.9,2026-03-30T14:37:50.703-05:00,72,1.2,2026-03-30T12:48:13.834-05:00,0.1236805929763694
2026-03-30T14:40:00.056-05:00,1774899599.768516,30.28870405898641,-97.73751622402015,174.0551,0.1597846,0.4187267,-1,-1,3,15.84175934995874,-9999,135330.67456875,0.736328125,0.3990631103515625,-0.5320281982421875,135330.64441375,-3.035925283854995,0.9476754901390013,-0.4076593936716719,0.01470156945288181,0.004720539785921574,0.001176819554530084,-0.006530702114105225,0.005042850971221924,0.004209280014038086,XArbitraryZVertical,0.4367229144329096,0.2034660522652713,-0.8750648605638872,-0.0462188181806362,0.7455138564109802,0.3964616060256958,-0.5357493162155151,0,0,0,-1,-1,135330.58912875,walking,2,2026-03-30T14:39:59.956-05:00,2026-03-30T10:54:16.334-05:00,3789,1.345529,0,0,2555.308,4,4,2026-03-30T14:39:52.236-05:00,796592400.0179602,0,-0.3399963,99.60526,1,0.9,2026-03-30T14:37:50.703-05:00,72,1.2,2026-03-30T12:48:13.834-05:00,0.1236805929763694
2026-03-30T14:40:00.077-05:00,1774899599.768516,30.28870405898641,-97.73751622402015,174.0551,0.1597846,0.4187267,-1,-1,3,15.84175934995874,-9999,135330.70849275,0.7395172119140625,0.39697265625,-0.5359954833984375,135330.67456875,-3.036390968693271,0.9475784166359883,-0.4072897359557365,0.02033757418394089,0.005407524295151234,0.0006616668542847037,-0.007742106914520264,0.00291028618812561,0.004626572132110596,XArbitraryZVertical,0.4367533205073194,0.2032066664996911,-0.8751041280036086,-0.04632848813714009,0.7455807328224182,0.3961222171783447,-0.5359071493148804,0,0,0,-1,-1,135330.58912875,walking,2,2026-03-30T14:39:59.956-05:00,2026-03-30T10:54:16.334-05:00,3789,1.345529,0,0,2555.308,4,4,2026-03-30T14:39:52.236-05:00,796592400.0179602,0,-0.3399963,99.60526,1,0.9,2026-03-30T14:37:50.703-05:00,72,1.2,2026-03-30T12:48:13.834-05:00,0.1236805929763694
2026-03-30T14:40:00.112-05:00,1774899599.768516,30.28870405898641,-97.73751622402015,174.0551,0.1597846,0.4187267,-1,-1,3,15.84175934995874,-9999,135330.74241775,0.7403411865234375,0.3953399658203125,-0.5382232666015625,135330.73487975,-3.037407357667839,0.9474353273000578,-0.4065520158530077,0.02189474552869797,0.004027795977890491,0.00236147828400135,-0.003874123096466064,0.002046644687652588,-0.0001316666603088379,XArbitraryZVertical,0.4368446087412911,0.2026687645101738,-0.8751694172604285,-0.04659063756439698,0.7457411289215088,0.3954447507858276,-0.5361843109130859,0,0,0,-1,-1,135330.58912875,walking,2,2026-03-30T14:39:59.956-05:00,2026-03-30T10:54:16.334-05:00,3789,1.345529,0,0,2555.308,4,4,2026-03-30T14:39:52.236-05:00,796592400.0179602,0,-0.3399963,99.60526,1,0.9,2026-03-30T14:37:50.703-05:00,72,1.2,2026-03-30T12:48:13.834-05:00,0.1236805929763694
2026-03-30T14:40:00.147-05:00,1774899599.768516,30.28870405898641,-97.73751622402015,174.0551,0.1597846,0.4187267,-1,-1,3,15.84175934995874,-9999,135330.77634375,0.7455596923828125,0.3920745849609375,-0.536376953125,135330.76503575,-3.038109994289605,0.9472895908496526,-0.4060086637241797,0.03090359643101692,0.00470223231241107,0.004414238501340151,-0.00258171558380127,0.001065641641616821,-0.002995133399963379,XArbitraryZVertical,0.4368892286866491,0.2022835118186022,-0.8752272455669495,-0.04675961387306577,0.7458373308181763,0.3949456214904785,-0.5364183783531189,0,0,0,-1,-1,135330.58912875,walking,2,2026-03-30T14:39:59.956-05:00,2026-03-30T10:54:16.334-05:00,3789,1.345529,0,0,2555.308,4,4,2026-03-30T14:39:52.236-05:00,796592400.0179602,0,-0.3399963,99.60526,1,0.9,2026-03-30T14:37:50.703-05:00,72,1.2,2026-03-30T12:48:13.834-05:00,0.1236805929763694
2026-03-30T14:40:00.182-05:00,1774899599.768516,30.28870405898641,-97.73751622402015,174.0551,0.1597846,0.4187267,-1,-1,3,15.84175934995874,-9999,135330.81026875,0.7458953857421875,0.3910980224609375,-0.532562255859375,135330.79519075,-3.03863977705432,0.9472047682031763,-0.4055361711947886,0.01390408631414175,0.001640367554500699,0.004611460026353598,0.002439320087432861,-0.006144881248474121,0.002456545829772949,XArbitraryZVertical,0.4369379665900923,0.2019652315017794,-0.8752701876528597,-0.04687531288396983,0.7459431886672974,0.394511491060257,-0.5365905165672302,0,0,0,-1,-1,135330.58912875,walking,2,2026-03-30T14:39:59.956-05:00,2026-03-30T10:54:16.334-05:00,3789,1.345529,0,0,2555.308,4,4,2026-03-30T14:39:52.236-05:00,796592400.0179602,0,-0.3399963,99.60526,1,0.9,2026-03-30T14:37:50.703-05:00,72,1.2,2026-03-30T12:48:13.834-05:00,0.1236805929763694
2026-03-30T14:40:00.213-05:00,1774899599.768516,30.28870405898641,-97.73751622402015,174.0551,0.1597846,0.4187267,-1,-1,3,15.84175934995874,-9999,135330.84419275,0.7445526123046875,0.395263671875,-0.5328369140625,135330.82534675,-3.038930300765668,0.9471918513620232,-0.4051426430174857,0.01486832834780216,0.004158696625381708,0.006920492742210627,0.001877725124359131,-0.002853542566299438,0.005852699279785156,XArbitraryZVertical,0.4369884771141612,0.2017316894163198,-0.8752969273833102,-0.04691153914166166,0.7460622787475586,0.3941498696804047,-0.5366907715797424,0,0,0,-1,-1,135330.58912875,walking,2,2026-03-30T14:39:59.956-05:00,2026-03-30T10:54:16.334-05:00,3789,1.345529,0,0,2555.308,4,4,2026-03-30T14:39:52.236-05:00,796592400.0179602,0,-0.3399963,99.60526,1,0.9,2026-03-30T14:37:50.703-05:00,72,1.2,2026-03-30T12:48:13.834-05:00,0.1236805929763694
2026-03-30T14:40:00.247-05:00,1774899599.768516,30.28870405898641,-97.73751622402015,174.0551,0.1597846,0.4187267,-1,-1,3,15.84175934995874,-9999,135330.87811775,0.7436981201171875,0.3950958251953125,-0.5311279296875,135330.85550175,-3.039355713372558,0.9471360008162638,-0.4045959937468153,0.01931953616440296,0.004660169593989849,0.004546284675598145,-0.003287255764007568,4.455447196960449e-05,0.004128038883209229,XArbitraryZVertical,0.4370441257927457,0.2014033609305524,-0.8753417922588413,-0.04696762276206876,0.7462071180343628,0.3936474025249481,-0.5368582606315613,0,0,0,-1,-1,135330.58912875,walking,2,2026-03-30T14:39:59.956-05:00,2026-03-30T10:54:16.334-05:00,3789,1.345529,0,0,2555.308,4,4,2026-03-30T14:39:52.236-05:00,796592400.0179602,0,-0.3399963,99.60526,1,0.9,2026-03-30T14:37:50.703-05:00,72,1.2,2026-03-30T12:48:13.834-05:00,0.1236805929763694
2026-03-30T14:40:00.283-05:00,1774899599.768516,30.28870405898641,-97.73751622402015,174.0551,0.1597846,0.4187267,-1,-1,3,15.84175934995874,-9999,135330.91204275,0.7303619384765625,0.4148712158203125,-0.536529541015625,135330.88565775,-3.039833232794135,0.94699190586348,-0.4040058046474665,0.03621094673871994,-0.0008285208605229855,0.01336138136684895,-0.002192854881286621,0.003120124340057373,0.006202220916748047,XArbitraryZVertical,0.4370692080975324,0.201046833775237,-0.8754079667476548,-0.04702779073267955,0.7463181614875793,0.3931047916412354,-0.5371013283729553,0,0,0,-1,-1,135330.58912875,walking,2,2026-03-30T14:39:59.956-05:00,2026-03-30T10:54:16.334-05:00,3789,1.345529,0,0,2555.308,4,4,2026-03-30T14:39:52.236-05:00,796592400.0179602,0,-0.3399963,99.60526,1,0.9,2026-03-30T14:37:50.703-05:00,72,1.2,2026-03-30T12:48:13.834-05:00,0.1236805929763694
2026-03-30T14:40:00.318-05:00,1774899599.768516,30.28870405898641,-97.73751622402015,174.0551,0.1597846,0.4187267,-1,-1,3,15.84175934995874,-9999,135330.94596875,0.743682861328125,0.406768798828125,-0.54364013671875,135330.91581275,-3.041327935322553,0.9465799816955546,-0.402488433323402,0.04480652138590813,0.01587530039250851,-0.0133106792345643,-0.01661479473114014,0.02279579639434814,0.001562774181365967,XArbitraryZVertical,0.4371413790800865,0.2000726508032741,-0.8755805951117411,-0.04729553616233478,0.7465799450874329,0.3917091190814972,-0.5377566814422607,0,0,0,-1,-1,135330.58912875,walking,2,2026-03-30T14:39:59.956-05:00,2026-03-30T10:54:16.334-05:00,3789,1.345529,0,0,2555.308,4,4,2026-03-30T14:39:52.236-05:00,796592400.0179602,0,-0.3399963,99.60526,1,0.9,2026-03-30T14:37:50.703-05:00,72,1.2,2026-03-30T12:48:13.834-05:00,0.1236805929763694
2026-03-30T14:40:00.348-05:00,1774899599.768516,30.28870405898641,-97.73751622402015,174.0551,0.1597846,0.4187267,-1,-1,3,15.84175934995874,-9999,135330.97989175,0.74603271484375,0.3872222900390625,-0.5409393310546875,135330.94596875,-3.042280471152054,0.9466886077113218,-0.4018102283326474,0.06072667241096497,0.02183870784938335,0.00227384315803647,-0.006833076477050781,0.00842052698135376,-0.001079261302947998,XArbitraryZVertical,0.4373296714535317,0.1995679961594151,-0.8755869751322355,-0.04756910014685908,0.746853768825531,0.3910850286483765,-0.5378307700157166,0,0,0,-1,-1,135330.58912875,walking,2,2026-03-30T14:39:59.956-05:00,2026-03-30T10:54:16.334-05:00,3789,1.345529,0,0,2555.308,4,4,2026-03-30T14:39:52.236-05:00,796592400.0179602,0,-0.3399963,99.60526,1,0.9,2026-03-30T14:37:50.703-05:00,72,1.2,2026-03-30T12:48:13.834-05:00,0.1236805929763694
2026-03-30T14:40:00.384-05:00,1774899599.768516,30.28870405898641,-97.73751622402015,174.0551,0.1597846,0.4187267,-1,-1,3,15.84175934995874,-9999,135331.01381775,0.7517852783203125,0.3779449462890625,-0.5413055419921875,135331.00627975,-3.045388109679752,0.9467652815910295,-0.3995600756497764,0.05115047842264175,0.02030525915324688,0.00281952484510839,-0.00313103199005127,-0.002462267875671387,-0.003599166870117188,XArbitraryZVertical,0.4378219378579672,0.1979110659911384,-0.8756701176024049,-0.04842550241381977,0.7476072907447815,0.3890131115913391,-0.5382863283157349,0,0,0,-1,-1,135330.58912875,walking,2,2026-03-30T14:39:59.956-05:00,2026-03-30T10:54:16.334-05:00,3789,1.345529,0,0,2555.308,4,4,2026-03-30T14:39:52.236-05:00,796592400.0179602,0,-0.3399963,99.60526,1,0.9,2026-03-30T14:37:50.703-05:00,72,1.2,2026-03-30T12:48:13.834-05:00,0.1236805929763694
2026-03-30T14:40:00.418-05:00,1774899599.768516,30.28870405898641,-97.73751622402015,174.0551,0.1597846,0.4187267,-1,-1,3,15.84175934995874,-9999,135331.04774275,0.75079345703125,0.3820648193359375,-0.5326995849609375,135331.03643475,-3.046330944053596,0.9469584116868429,-0.3986507474368535,0.03086522780358791,0.01589251309633255,0.01146131381392479,-0.0006378889083862305,-0.004981338977813721,-0.004055917263031006,XArbitraryZVertical,0.4380596667780472,0.1973057187594714,-0.8756753948093347,-0.04865058484153886,0.747998058795929,0.3881752490997314,-0.538348376750946,0,0,0,-1,-1,135330.58912875,walking,2,2026-03-30T14:39:59.956-05:00,2026-03-30T10:54:16.334-05:00,3789,1.345529,0,0,2555.308,4,4,2026-03-30T14:39:52.236-05:00,796592400.0179602,0,-0.3399963,99.60526,1,0.9,2026-03-30T14:37:50.703-05:00,72,1.2,2026-03-30T12:48:13.834-05:00,0.1236805929763694
2026-03-30T14:40:00.453-05:00,1774899599.768516,30.28870405898641,-97.73751622402015,174.0551,0.1597846,0.4187267,-1,-1,3,15.84175934995874,-9999,135331.08166775,0.7405853271484375,0.3856201171875,-0.52313232421875,135331.06659075,-3.046702314455612,0.947130516081602,-0.3980093689155317,0.01490437053143978,0.007024453952908516,0.01101416908204556,-0.003389120101928711,-0.004497021436691284,0.01231807470321655,XArbitraryZVertical,0.438213848759822,0.1969421129416391,-0.8756781154600312,-0.04868431566846501,0.7482925653457642,0.3875840902328491,-0.5383648276329041,0,0,0,-1,-1,135330.58912875,walking,2,2026-03-30T14:39:59.956-05:00,2026-03-30T10:54:16.334-05:00,3789,1.345529,0,0,2555.308,4,4,2026-03-30T14:39:52.236-05:00,796592400.0179602,0,-0.3399963,99.60526,1,0.9,2026-03-30T14:37:50.703-05:00,72,1.2,2026-03-30T12:48:13.834-05:00,0.1236805929763694
2026-03-30T14:40:00.484-05:00,1774899599.768516,30.28870405898641,-97.73751622402015,174.0551,0.1597846,0.4187267,-1,-1,3,15.84175934995874,-9999,135331.11559175,0.738739013671875,0.4034576416015625,-0.5282440185546875,135331.09674575,-3.046895708313877,0.9472299189727779,-0.3973861062846289,0.02428140491247177,0.00734891090542078,0.01527499314397573,-0.008872330188751221,0.004729360342025757,0.01534485816955566,XArbitraryZVertical,0.438317306344941,0.1966270785930195,-0.8756998374234557,-0.04863697718226149,0.7485420703887939,0.387009471654892,-0.5384314656257629,0,0,0,-1,-1,135330.58912875,walking,2,2026-03-30T14:39:59.956-05:00,2026-03-30T10:54:16.334-05:00,3789,1.345529,0,0,2555.308,4,4,2026-03-30T14:39:52.236-05:00,796592400.0179602,0,-0.3399963,99.60526,1,0.9,2026-03-30T14:37:50.703-05:00,72,1.2,2026-03-30T12:48:13.834-05:00,0.1236805929763694
2026-03-30T14:40:00.519-05:00,1774899599.768516,30.28870405898641,-97.73751622402015,174.0551,0.1597846,0.4187267,-1,-1,3,15.84175934995874,-9999,135331.14951675,0.7336883544921875,0.4097137451171875,-0.541168212890625,135331.12690175,-3.047597533386679,0.947287440228664,-0.3962547354198004,0.05238647386431694,0.01596942357718945,0.01996114291250706,-0.009929656982421875,0.01958203315734863,0.006294965744018555,XArbitraryZVertical,0.4384854638921213,0.1959812508218326,-0.8757572946408062,-0.04869258567140624,0.7489280104637146,0.3859660029411316,-0.5386437177658081,0,0,0,-1,-1,135330.58912875,walking,2,2026-03-30T14:39:59.956-05:00,2026-03-30T10:54:16.334-05:00,3789,1.345529,0,0,2555.308,4,4,2026-03-30T14:39:52.236-05:00,796592400.0179602,0,-0.3399963,99.60526,1,0.9,2026-03-30T14:37:50.703-05:00,72,1.2,2026-03-30T12:48:13.834-05:00,0.1236805929763694
2026-03-30T14:40:00.556-05:00,1774899599.768516,30.28870405898641,-97.73751622402015,174.0551,0.1597846,0.4187267,-1,-1,3,15.84175934995874,-9999,135331.18344275,0.7326507568359375,0.3987884521484375,-0.545379638671875,135331.15705675,-3.049093154128319,0.9473502814197214,-0.3944530612128921,0.08588074147701263,0.02914820611476898,0.0210704542696476,-0.01649308204650879,0.02531880140304565,-0.002197027206420898,XArbitraryZVertical,0.4387763559955878,0.1948702679768665,-0.8758455632233842,-0.04894382849664791,0.749525249004364,0.3843033015727997,-0.5390017628669739,0,0,0,-1,-1,135330.58912875,walking,2,2026-03-30T14:39:59.956-05:00,2026-03-30T10:54:16.334-05:00,3789,1.345529,0,0,2555.308,4,4,2026-03-30T14:39:52.236-05:00,796592400.0179602,0,-0.3399963,99.60526,1,0.9,2026-03-30T14:37:50.703-05:00,72,1.2,2026-03-30T12:48:13.834-05:00,0.1236805929763694
2026-03-30T14:40:00.589-05:00,1774899599.768516,30.28870405898641,-97.73751622402015,174.0551,0.1597846,0.4187267,-1,-1,3,15.84175934995874,-9999,135331.21736775,0.739654541015625,0.39190673828125,-0.547943115234375,135331.18721175,-3.051405830325139,0.9475779419738019,-0.3923280012456251,0.1202953308820724,0.04000440984964371,0.01839572004973888,-0.01938289403915405,0.01646304130554199,-0.006408870220184326,XArbitraryZVertical,0.4392375618966091,0.1934350407301168,-0.8759014269515231,-0.04949544365686595,0.7503092885017395,0.3823405802249908,-0.5393065214157104,0,0,0,-1,-1,135330.58912875,walking,2,2026-03-30T14:39:59.956-05:00,2026-03-30T10:54:16.334-05:00,3789,1.345529,0,0,2555.308,4,4,2026-03-30T14:39:52.236-05:00,796592400.0179602,0,-0.3399963,99.60526,1,0.9,2026-03-30T14:37:50.703-05:00,72,1.2,2026-03-30T12:48:13.834-05:00,0.1236805929763694
2026-03-30T14:40:00.620-05:00,1774899599.768516,30.28870405898641,-97.73751622402015,174.0551,0.1597846,0.4187267,-1,-1,3,15.84175934995874,-9999,135331.2512907917,0.7440338134765625,0.3864288330078125,-0.552490234375,135331.21736775,-3.054495202498588,0.9478297122493168,-0.3896101648164258,0.1414779275655746,0.05721581354737282,0.01747093535959721,-0.01288300752639771,0.01201781630516052,-0.006390273571014404,XArbitraryZVertical,0.4398180646508018,0.1915701709536215,-0.875976777707588,-0.05025462297878397,0.7512862682342529,0.3798278272151947,-0.5397219061851501,0,0,0,-1,-1,135330.58912875,walking,2,2026-03-30T14:39:59.956-05:00,2026-03-30T10:54:16.334-05:00,3789,1.345529,0,0,2555.308,4,4,2026-03-30T14:39:52.236-05:00,796592400.0179602,0,-0.3399963,99.60526,1,0.9,2026-03-30T14:37:50.703-05:00,72,1.2,2026-03-30T12:48:13.834-05:00,0.1236805929763694
2026-03-30T14:40:00.655-05:00,1774899599.768516,30.28870405898641,-97.73751622402015,174.0551,0.1597846,0.4187267,-1,-1,3,15.84175934995874,-9999,135331.2852167917,0.7501678466796875,0.3668212890625,-0.553558349609375,135331.2776787917,-3.061681102529248,0.949033891068077,-0.3831932840947113,0.1289245337247849,0.07053465396165848,0.01929998211562634,-0.01166814565658569,-0.005887925624847412,-0.009976089000701904,XArbitraryZVertical,0.4414238743323449,0.187169134257288,-0.8760152312572173,-0.05205658443752326,0.7539013028144836,0.3738840520381927,-0.5402253270149231,0,0,0,-1,-1,135330.58912875,walking,2,2026-03-30T14:39:59.956-05:00,2026-03-30T10:54:16.334-05:00,3789,1.345529,0,0,2555.308,4,4,2026-03-30T14:39:52.236-05:00,796592400.0179602,0,-0.3399963,99.60526,1,0.9,2026-03-30T14:37:50.703-05:00,72,1.2,2026-03-30T12:48:13.834-05:00,0.1236805929763694
2026-03-30T14:40:00.690-05:00,1774899599.768516,30.28870405898641,-97.73751622402015,174.0551,0.1597846,0.4187267,-1,-1,3,15.84175934995874,-9999,135331.3191417917,0.758697509765625,0.370208740234375,-0.544647216796875,135331.3078337917,-3.064407320901748,0.9501048725417739,-0.3807226787081783,0.1172065064311028,0.06196043267846107,0.02430739998817444,-0.01098120212554932,-0.00942423939704895,-0.009988844394683838,XArbitraryZVertical,0.4422963837550954,0.1854651091235489,-0.8758937456066352,-0.05278817796208572,0.7552285194396973,0.3715915083885193,-0.5399532318115234,0,0,0,-1,-1,135330.58912875,walking,2,2026-03-30T14:39:59.956-05:00,2026-03-30T10:54:16.334-05:00,3789,1.345529,0,0,2555.308,4,4,2026-03-30T14:39:52.236-05:00,796592400.0179602,0,-0.3399963,99.60526,1,0.9,2026-03-30T14:37:50.703-05:00,72,1.2,2026-03-30T12:48:13.834-05:00,0.1236805929763694
2026-03-30T14:40:00.725-05:00,1774899599.768516,30.28870405898641,-97.73751622402015,174.0551,0.1597846,0.4187267,-1,-1,3,15.84175934995874,-9999,135331.3530677917,0.7579803466796875,0.3665313720703125,-0.530792236328125,135331.3379897917,-3.066733332996418,0.951114960213859,-0.3781916605687283,0.1134806573390961,0.06520740687847137,0.02387657202780247,-0.004202306270599365,-0.006188243627548218,0.002152144908905029,XArbitraryZVertical,0.4431045853777683,0.1838233556727558,-0.8757989570907352,-0.05332366010499662,0.7565367817878723,0.3692405223846436,-0.5397346019744873,0,0,0,-1,-1,135330.58912875,walking,2,2026-03-30T14:39:59.956-05:00,2026-03-30T10:54:16.334-05:00,3789,1.345529,0,0,2555.308,4,4,2026-03-30T14:39:52.236-05:00,796592400.0179602,0,-0.3399963,99.60526,1,0.9,2026-03-30T14:37:50.703-05:00,72,1.2,2026-03-30T12:48:13.834-05:00,0.1236805929763694
2026-03-30T14:40:00.755-05:00,1774899599.768516,30.28870405898641,-97.73751622402015,174.0551,0.1597846,0.4187267,-1,-1,3,15.84175934995874,-9999,135331.3869907917,0.7603912353515625,0.357330322265625,-0.5101470947265625,135331.3681447917,-3.069424463808594,0.9517703703509076,-0.3752639803337189,0.1345383375883102,0.04723096638917923,0.03244530782103539,0.007994651794433594,-0.002138376235961914,0.02158349752426147,XArbitraryZVertical,0.4438100931449572,0.18193628186723,-0.8758007992607917,-0.05389497740698451,0.7577675580978394,0.3665181398391724,-0.5398635864257812,0,0,0,-1,-1,135330.58912875,walking,2,2026-03-30T14:39:59.956-05:00,2026-03-30T10:54:16.334-05:00,3789,1.345529,0,0,2555.308,4,4,2026-03-30T14:39:52.236-05:00,796592400.0179602,0,-0.3399963,99.60526,1,0.9,2026-03-30T14:37:50.703-05:00,72,1.2,2026-03-30T12:48:13.834-05:00,0.1236805929763694
2026-03-30T14:40:00.790-05:00,1774899599.768516,30.28870405898641,-97.73751622402015,174.0551,0.1597846,0.4187267,-1,-1,3,15.84175934995874,-9999,135331.4209157917,0.772552490234375,0.3530731201171875,-0.5172576904296875,135331.3983007917,-3.072379300726503,0.951966982773049,-0.3722089425740923,0.1276212632656097,0.03669888153672218,0.02848195657134056,0.004782736301422119,-0.0084494948387146,0.03030604124069214,XArbitraryZVertical,0.4443406038619079,0.1799461743397868,-0.8759048672951634,-0.054510599849902,0.7587822675704956,0.3636740148067474,-0.5403615832328796,0,0,0,-1,-1,135330.58912875,walking,2,2026-03-30T14:39:59.956-05:00,2026-03-30T10:54:16.334-05:00,3789,1.345529,0,0,2555.308,4,4,2026-03-30T14:39:52.236-05:00,796592400.0179602,0,-0.3399963,99.60526,1,0.9,2026-03-30T14:37:50.703-05:00,72,1.2,2026-03-30T12:48:13.834-05:00,0.1236805929763694
2026-03-30T14:40:00.826-05:00,1774899599.768516,30.28870405898641,-97.73751622402015,174.0551,0.1597846,0.4187267,-1,-1,3,15.84175934995874,-9999,135331.4548417917,0.772247314453125,0.353057861328125,-0.5186920166015625,135331.4284557917,-3.074896478828862,0.9520280399788165,-0.3694554183243501,0.1097356304526329,0.0239197164773941,0.02513112127780914,0.01228344440460205,-0.008156657218933105,0.02188152074813843,XArbitraryZVertical,0.4447498072542327,0.1781869065962907,-0.8760268143400178,-0.05499118031845751,0.7596281170845032,0.3611076474189758,-0.540894091129303,0,0,0,-1,-1,135330.58912875,walking,2,2026-03-30T14:39:59.956-05:00,2026-03-30T10:54:16.334-05:00,3789,1.345529,0,0,2555.308,4,4,2026-03-30T14:39:52.236-05:00,796592400.0179602,0,-0.3399963,99.60526,1,0.9,2026-03-30T14:37:50.703-05:00,72,1.2,2026-03-30T12:48:13.834-05:00,0.1236805929763694
2026-03-30T14:40:00.861-05:00,1774899600.768515,30.28869785751173,-97.73751637985856,173.9299,0.09650254,0.42269,-1,-1,3,13.74308340190081,-9999,135331.4887667917,0.7669525146484375,0.3462066650390625,-0.5253753662109375,135331.4586117917,-3.076655008987279,0.951940767547287,-0.3673427117028532,0.07157647609710693,0.009363592602312565,0.02364717423915863,0.01329785585403442,-0.007848918437957764,0.02278590202331543,XArbitraryZVertical,0.4449866603393171,0.1768785293595253,-0.8761539545734279,-0.05527249921184434,0.7602006196975708,0.359136700630188,-0.541401743888855,0,0,0,-1,-1,135330.58912875,walking,2,2026-03-30T14:39:59.956-05:00,2026-03-30T10:54:16.334-05:00,3789,1.345529,0,0,2555.308,4,4,2026-03-30T14:39:52.236-05:00,796592400.0179602,0,-0.3399963,99.60526,1,0.9,2026-03-30T14:37:50.703-05:00,72,1.2,2026-03-30T12:48:13.834-05:00,0.1236805929763694
2026-03-30T14:40:00.891-05:00,1774899600.768515,30.28869785751173,-97.73751637985856,173.9299,0.09650254,0.42269,-1,-1,3,13.74308340190081,-9999,135331.5226907917,0.7705078125,0.342559814453125,-0.531524658203125,135331.4887667917,-3.077898472917725,0.9514935622715028,-0.3656142924407563,0.05601267889142036,-0.008233833126723766,0.02673199772834778,0.008229196071624756,-0.008356243371963501,0.01739710569381714,XArbitraryZVertical,0.4449967506089785,0.1758616048368118,-0.8763465359494133,-0.05538426491851561,0.760462760925293,0.3575230538845062,-0.5421012043952942,0,0,0,-1,-1,135330.58912875,walking,2,2026-03-30T14:39:59.956-05:00,2026-03-30T10:54:16.334-05:00,3789,1.345529,0,0,2555.308,4,4,2026-03-30T14:39:52.236-05:00,796592400.0179602,0,-0.3399963,99.60526,1,0.9,2026-03-30T14:37:50.703-05:00,72,1.2,2026-03-30T12:48:13.834-05:00,0.1236805929763694
2026-03-30T14:40:00.926-05:00,1774899600.768515,30.28869785751173,-97.73751637985856,173.9299,0.09650254,0.42269,-1,-1,3,13.74308340190081,-9999,135331.5566157917,0.7697296142578125,0.34759521484375,-0.54693603515625,135331.5490777917,-3.079247379802274,0.950031297368934,-0.3627665046243602,0.01575731299817562,-0.0182527881115675,0.02711921744048595,0.008762180805206299,-0.008243441581726074,0.002985239028930664,XArbitraryZVertical,0.444631141554937,0.1743612851193012,-0.8768433622125061,-0.05519965791301928,0.7604943513870239,0.3548620343208313,-0.5438025593757629,0,0,0,-1,-1,135330.58912875,walking,2,2026-03-30T14:39:59.956-05:00,2026-03-30T10:54:16.334-05:00,3789,1.345529,0,0,2555.308,4,4,2026-03-30T14:39:52.236-05:00,796592400.0179602,0,-0.3399963,99.60526,1,0.9,2026-03-30T14:37:50.703-05:00,72,1.2,2026-03-30T12:48:13.834-05:00,0.1236805929763694
2026-03-30T14:40:00.961-05:00,1774899600.768515,30.28869785751173,-97.73751637985856,173.9299,0.09650254,0.42269,-1,-1,3,13.74308340190081,-9999,135331.5905417917,0.7640380859375,0.332000732421875,-0.5588226318359375,135331.5792337917,-3.078366415616246,0.9497755168216619,-0.3623191589565958,-0.05653470382094383,-0.01724634878337383,0.02172989584505558,0.00582730770111084,-0.01264700293540955,-0.007988929748535156,XArbitraryZVertical,0.4444667839432048,0.1743691526707365,-0.8769570012321722,-0.05468943998402303,0.7604842185974121,0.3544437885284424,-0.5440893769264221,0,0,0,-1,-1,135330.58912875,walking,2,2026-03-30T14:39:59.956-05:00,2026-03-30T10:54:16.334-05:00,3789,1.345529,0,0,2555.308,4,4,2026-03-30T14:39:52.236-05:00,796592400.0179602,0,-0.3399963,99.60526,1,0.9,2026-03-30T14:37:50.703-05:00,72,1.2,2026-03-30T12:48:13.834-05:00,0.1236805929763694
2026-03-30T14:40:00.996-05:00,1774899600.768515,30.28869785751173,-97.73751637985856,173.9299,0.09650254,0.42269,-1,-1,3,13.74308340190081,-9999,135331.6244667917,0.7618408203125,0.34613037109375,-0.5625457763671875,135331.6093887917,-3.075598594133282,0.9504397579751325,-0.3635936125060664,-0.1129102483391762,-0.006664054002612829,0.01173530146479607,0.001714408397674561,-0.01592886447906494,-0.02215445041656494,XArbitraryZVertical,0.4444453010569984,0.1755215839978689,-0.8767916217647064,-0.05382382627824873,0.7604773640632629,0.3556351959705353,-0.5433210730552673,0,0,0,-1,-1,135330.58912875,walking,2,2026-03-30T14:39:59.956-05:00,2026-03-30T10:54:16.334-05:00,3789,1.345529,0,0,2555.308,4,4,2026-03-30T14:39:52.236-05:00,796592400.0179602,0,-0.3399963,99.60526,1,0.9,2026-03-30T14:37:50.703-05:00,72,1.2,2026-03-30T12:48:13.834-05:00,0.1236805929763694
2026-03-30T14:40:01.027-05:00,1774899600.768515,30.28869785751173,-97.73751637985856,173.9299,0.09650254,0.42269,-1,-1,3,13.74308340190081,-9999,135331.6583897917,0.7535400390625,0.353363037109375,-0.55413818359375,135331.6395447917,-3.072378132385287,0.9515505196181838,-0.3651463602964241,-0.09246502816677094,0.008081082254648209,0.01936036348342896,-0.001733958721160889,-0.004150301218032837,-0.02040624618530273,XArbitraryZVertical,0.4445611502666909,0.1768839696487816,-0.8765174915567582,-0.0528636189974523,0.7606297731399536,0.3570860028266907,-0.5421549081802368,0,0,0,-1,-1,135330.58912875,walking,2,2026-03-30T14:39:59.956-05:00,2026-03-30T10:54:16.334-05:00,3789,1.345529,0,0,2555.308,4,4,2026-03-30T14:39:52.236-05:00,796592400.0179602,0,-0.3399963,99.60526,1,0.9,2026-03-30T14:37:50.703-05:00,72,1.2,2026-03-30T12:48:13.834-05:00,0.1236805929763694
2026-03-30T14:40:01.062-05:00,1774899600.768515,30.28869785751173,-97.73751637985856,173.9299,0.09650254,0.42269,-1,-1,3,13.74308340190081,-9999,135331.6923157917,0.7568817138671875,0.34698486328125,-0.5383453369140625,135331.6696997917,-3.069744155190886,0.9528313764772265,-0.3661738237892894,-0.1006601750850677,0.01733492128551006,0.01032596919685602,-0.005195319652557373,-0.01238825917243958,-0.008410215377807617,XArbitraryZVertical,0.4448301922607531,0.1778832367102178,-0.8762269282346776,-0.05205737114560024,0.7610241174697876,0.3580455482006073,-0.5409672856330872,0,0,0,-1,-1,135330.58912875,walking,2,2026-03-30T14:39:59.956-05:00,2026-03-30T10:54:16.334-05:00,3789,1.345529,0,0,2555.308,4,4,2026-03-30T14:39:52.236-05:00,796592400.0179602,0,-0.3399963,99.60526,1,0.9,2026-03-30T14:37:50.703-05:00,72,1.2,2026-03-30T12:48:13.834-05:00,0.1236805929763694
2026-03-30T14:40:01.097-05:00,1774899600.768515,30.28869785751173,-97.73751637985856,173.9299,0.09650254,0.42269,-1,-1,3,13.74308340190081,-9999,135331.7262407917,0.7595672607421875,0.3610992431640625,-0.52728271484375,135331.6998557917,-3.067153476089842,0.9542941491430336,-0.3677110065691486,-0.07996215671300888,0.01910895295441151,0.004509879741817713,-0.00268244743347168,-0.01028308272361755,0.002791404724121094,XArbitraryZVertical,0.445150851252113,0.1790904263199815,-0.8758566843971077,-0.05140426125502116,0.7613646984100342,0.3594803810119629,-0.5395346879959106,0,0,0,-1,-1,135330.58912875,walking,2,2026-03-30T14:39:59.956-05:00,2026-03-30T10:54:16.334-05:00,3789,1.345529,0,0,2555.308,4,4,2026-03-30T14:39:52.236-05:00,796592400.0179602,0,-0.3399963,99.60526,1,0.9,2026-03-30T14:37:50.703-05:00,72,1.2,2026-03-30T12:48:13.834-05:00,0.1236805929763694
2026-03-30T14:40:01.132-05:00,1774899600.768515,30.28869785751173,-97.73751637985856,173.9299,0.09650254,0.42269,-1,-1,3,13.74308340190081,-9999,135331.7601667917,0.745849609375,0.3631591796875,-0.5296173095703125,135331.7300107917,-3.065483648308724,0.955472122424873,-0.3686064761543738,-0.03437010198831558,0.01971336454153061,0.006909603718668222,-0.002108335494995117,0.0002034902572631836,0.01156532764434814,XArbitraryZVertical,0.4454644410306788,0.1798213156034359,-0.8755721180211539,-0.05098364354717819,0.7617365717887878,0.3603158593177795,-0.5384514331817627,0,0,0,-1,-1,135330.58912875,walking,2,2026-03-30T14:39:59.956-05:00,2026-03-30T10:54:16.334-05:00,3789,1.345529,0,0,2555.308,4,4,2026-03-30T14:39:52.236-05:00,796592400.0179602,0,-0.3399963,99.60526,1,0.9,2026-03-30T14:37:50.703-05:00,72,1.2,2026-03-30T12:48:13.834-05:00,0.1236805929763694
2026-03-30T14:40:01.162-05:00,1774899600.768515,30.28869785751173,-97.73751637985856,173.9299,0.09650254,0.42269,-1,-1,3,13.74308340190081,-9999,135331.7940897917,0.75244140625,0.3497772216796875,-0.5343475341796875,135331.7601667917,-3.065158793827551,0.9562373633251879,-0.3684788273109432,0.02181030064821243,0.0217263363301754,0.009995844215154648,-0.01342195272445679,0.004717051982879639,0.008185923099517822,XArbitraryZVertical,0.4457777500168718,0.1798187500526804,-0.8754190030678893,-0.05088105162701796,0.7621858716011047,0.3601967692375183,-0.5378948450088501,0,0,0,-1,-1,135330.58912875,walking,2,2026-03-30T14:39:59.956-05:00,2026-03-30T10:54:16.334-05:00,3789,1.345529,0,0,2555.308,4,4,2026-03-30T14:39:52.236-05:00,796592400.0179602,0,-0.3399963,99.60526,1,0.9,2026-03-30T14:37:50.703-05:00,72,1.2,2026-03-30T12:48:13.834-05:00,0.1236805929763694
2026-03-30T14:40:01.198-05:00,1774899600.768515,30.28869785751173,-97.73751637985856,173.9299,0.09650254,0.42269,-1,-1,3,13.74308340190081,-9999,135331.8280147917,0.7816619873046875,0.340240478515625,-0.5486297607421875,135331.8204777917,-3.066163872737299,0.9574780711378508,-0.3679218094070913,-0.03660038858652115,0.03172865509986877,-0.01003463659435511,0.01315212249755859,-0.02186283469200134,-0.0142664909362793,XArbitraryZVertical,0.4464436461163512,0.1793208687005192,-0.8751570892075226,-0.05130461591391755,0.7630166411399841,0.3596771061420441,-0.5370641946792603,0,0,0,-1,-1,135330.58912875,walking,2,2026-03-30T14:39:59.956-05:00,2026-03-30T10:54:16.334-05:00,3789,1.345529,0,0,2555.308,4,4,2026-03-30T14:39:52.236-05:00,796592400.0179602,0,-0.3399963,99.60526,1,0.9,2026-03-30T14:37:50.703-05:00,72,1.2,2026-03-30T12:48:13.834-05:00,0.1236805929763694
2026-03-30T14:40:01.232-05:00,1774899600.768515,30.28869785751173,-97.73751637985856,173.9299,0.09650254,0.42269,-1,-1,3,13.74308340190081,-9999,135331.8619407917,0.77593994140625,0.348663330078125,-0.54241943359375,135331.8506327917,-3.06485969605806,0.9589814380666173,-0.3688338328743008,-0.06957454234361649,0.0352872796356678,0.002593371784314513,0.02288353443145752,-0.006508857011795044,-0.01810520887374878,XArbitraryZVertical,0.4469305801625789,0.1799697325097085,-0.8747885973346966,-0.0510783991056887,0.7635543942451477,0.3605279326438904,-0.5357279181480408,0,0,0,-1,-1,135330.58912875,walking,2,2026-03-30T14:39:59.956-05:00,2026-03-30T10:54:16.334-05:00,3789,1.345529,0,0,2555.308,4,4,2026-03-30T14:39:52.236-05:00,796592400.0179602,0,-0.3399963,99.60526,1,0.9,2026-03-30T14:37:50.703-05:00,72,1.2,2026-03-30T12:48:13.834-05:00,0.1236805929763694
2026-03-30T14:40:01.267-05:00,1774899600.768515,30.28869785751173,-97.73751637985856,173.9299,0.09650254,0.42269,-1,-1,3,13.74308340190081,-9999,135331.8958657917,0.7547760009765625,0.3267974853515625,-0.5132904052734375,135331.8807877917,-3.062231904210178,0.9606472073780828,-0.3702079863496196,-0.1413951516151428,0.01670411787927151,0.001773215481080115,0.009154379367828369,-0.01839509606361389,0.01402914524078369,XArbitraryZVertical,0.4473402240254923,0.1811113326049153,-0.8743829897495263,-0.05039564532833738,0.7640389204025269,0.3618093430995941,-0.5341708064079285,0,0,0,-1,-1,135330.58912875,walking,2,2026-03-30T14:39:59.956-05:00,2026-03-30T10:54:16.334-05:00,3789,1.345529,0,0,2555.308,4,4,2026-03-30T14:39:52.236-05:00,796592400.0179602,0,-0.3399963,99.60526,1,0.9,2026-03-30T14:37:50.703-05:00,72,1.2,2026-03-30T12:48:13.834-05:00,0.1236805929763694
2026-03-30T14:40:01.298-05:00,1774899600.768515,30.28869785751173,-97.73751637985856,173.9299,0.09650254,0.42269,-1,-1,3,13.74308340190081,-9999,135331.9297897917,0.7701416015625,0.349609375,-0.516937255859375,135331.9109437917,-3.057640814627204,0.9627892380031929,-0.3734136510411863,-0.1773170232772827,0.01734020560979843,-0.01751153543591499,-0.006123125553131104,-0.03235277533531189,0.0191112756729126,XArbitraryZVertical,0.4476639931097877,0.1834750190301157,-0.8737854713568126,-0.04932309472498585,0.7642254829406738,0.3647959530353546,-0.5318677425384521,0,0,0,-1,-1,135330.58912875,walking,2,2026-03-30T14:39:59.956-05:00,2026-03-30T10:54:16.334-05:00,3789,1.345529,0,0,2555.308,4,4,2026-03-30T14:39:52.236-05:00,796592400.0179602,0,-0.3399963,99.60526,1,0.9,2026-03-30T14:37:50.703-05:00,72,1.2,2026-03-30T12:48:13.834-05:00,0.1236805929763694
2026-03-30T14:40:01.333-05:00,1774899600.768515,30.28869785751173,-97.73751637985856,173.9299,0.09650254,0.42269,-1,-1,3,13.74308340190081,-9999,135331.9637147917,0.7654266357421875,0.37274169921875,-0.5230865478515625,135331.9410987917,-3.053266207004457,0.9649921006696009,-0.3768248932593516,-0.1618297845125198,0.0292672161012888,-0.01513305120170116,0.004049420356750488,-0.02307569980621338,0.01009255647659302,XArbitraryZVertical,0.4480109058446773,0.1858778688792125,-0.8731510050818614,-0.04840406640699816,0.7643678784370422,0.3679699897766113,-0.5294712781906128,0,0,0,-1,-1,135330.58912875,walking,2,2026-03-30T14:39:59.956-05:00,2026-03-30T10:54:16.334-05:00,3789,1.345529,0,0,2555.308,4,4,2026-03-30T14:39:52.236-05:00,796592400.0179602,0,-0.3399963,99.60526,1,0.9,2026-03-30T14:37:50.703-05:00,72,1.2,2026-03-30T12:48:13.834-05:00,0.1236805929763694
2026-03-30T14:40:01.369-05:00,1774899600.768515,30.28869785751173,-97.73751637985856,173.9299,0.09650254,0.42269,-1,-1,3,13.74308340190081,-9999,135331.9976397917,0.75030517578125,0.390899658203125,-0.515838623046875,135331.9712547917,-3.050159157266333,0.9671983566407524,-0.3791870757724974,-0.08677396923303604,0.03658014535903931,-0.002846920862793922,-0.001159787178039551,0.007077574729919434,0.003683328628540039,XArbitraryZVertical,0.4485346030822112,0.1875428710203609,-0.8725591060374783,-0.04780114276235719,0.7648164033889771,0.3701654076576233,-0.5272887349128723,0,0,0,-1,-1,135330.58912875,walking,2,2026-03-30T14:39:59.956-05:00,2026-03-30T10:54:16.334-05:00,3789,1.345529,0,0,2555.308,4,4,2026-03-30T14:39:52.236-05:00,796592400.0179602,0,-0.3399963,99.60526,1,0.9,2026-03-30T14:37:50.703-05:00,72,1.2,2026-03-30T12:48:13.834-05:00,0.1236805929763694
2026-03-30T14:40:01.403-05:00,1774899600.768515,30.28869785751173,-97.73751637985856,173.9299,0.09650254,0.42269,-1,-1,3,13.74308340190081,-9999,135332.0315657917,0.746551513671875,0.387603759765625,-0.5495758056640625,135332.0014097917,-3.047979642444715,0.9693296286520818,-0.380816439881435,-0.0731206014752388,0.06948428601026535,-0.01594424620270729,-0.01316666603088379,0.01893109083175659,0.01139944791793823,XArbitraryZVertical,0.4491548683477005,0.1886852768977097,-0.8720138508812463,-0.04742929190897698,0.7654401063919067,0.3716785311698914,-0.525315523147583,0,0,0,-1,-1,135330.58912875,walking,2,2026-03-30T14:39:59.956-05:00,2026-03-30T10:54:16.334-05:00,3789,1.345529,0,0,2555.308,4,4,2026-03-30T14:39:52.236-05:00,796592400.0179602,0,-0.3399963,99.60526,1,0.9,2026-03-30T14:37:50.703-05:00,72,1.2,2026-03-30T12:48:13.834-05:00,0.1236805929763694
2026-03-30T14:40:01.434-05:00,1774899600.768515,30.28869785751173,-97.73751637985856,173.9299,0.09650254,0.42269,-1,-1,3,13.74308340190081,-9999,135332.0654887917,0.74798583984375,0.3972930908203125,-0.5478668212890625,135332.0315657917,-3.046703337239193,0.9719008822720311,-0.3827550568849462,-0.04269565641880035,0.07556278258562088,-0.03781653195619583,-0.02177655696868896,0.008739739656448364,-0.02161723375320435,XArbitraryZVertical,0.4500294065794087,0.1897479536677518,-0.8713245801794133,-0.047567414045011,0.7661917209625244,0.373477578163147,-0.5229384899139404,0,0,0,-1,-1,135330.58912875,walking,2,2026-03-30T14:39:59.956-05:00,2026-03-30T10:54:16.334-05:00,3789,1.345529,0,0,2555.308,4,4,2026-03-30T14:39:52.236-05:00,796592400.0179602,0,-0.3399963,99.60526,1,0.9,2026-03-30T14:37:50.703-05:00,72,1.2,2026-03-30T12:48:13.834-05:00,0.1236805929763694
2026-03-30T14:40:01.469-05:00,1774899600.768515,30.28869785751173,-97.73751637985856,173.9299,0.09650254,0.42269,-1,-1,3,13.74308340190081,-9999,135332.0994147917,0.742156982421875,0.4244232177734375,-0.47796630859375,135332.0918767917,-3.05100555769256,0.9771360315804695,-0.3827788928912906,0.1736893802881241,0.1433762013912201,-0.01593274250626564,-0.02049851417541504,0.05125913023948669,0.02958106994628906,XArbitraryZVertical,0.45271394203698,0.1886596618005853,-0.8700364530912119,-0.04994116956614086,0.7689114809036255,0.3734996914863586,-0.5189152359962463,0,0,0,-1,-1,135330.58912875,walking,2,2026-03-30T14:39:59.956-05:00,2026-03-30T10:54:16.334-05:00,3789,1.345529,0,0,2555.308,4,4,2026-03-30T14:39:52.236-05:00,796592400.0179602,0,-0.3399963,99.60526,1,0.9,2026-03-30T14:37:50.703-05:00,72,1.2,2026-03-30T12:48:13.834-05:00,0.1236805929763694
2026-03-30T14:40:01.504-05:00,1774899600.768515,30.28869785751173,-97.73751637985856,173.9299,0.09650254,0.42269,-1,-1,3,13.74308340190081,-9999,135332.1333397917,0.72802734375,0.454254150390625,-0.4764556884765625,135332.1220317917,-3.057241252265852,0.9791996893271032,-0.3794115531122396,0.2865588665008545,0.157631978392601,-0.001630718703381717,-0.01679366827011108,0.04915118217468262,0.06029260158538818,XArbitraryZVertical,0.4544085844146392,0.1857414564852263,-0.869656869602543,-0.05205807045536412,0.7710204124450684,0.37037393450737,-0.5180258750915527,0,0,0,-1,-1,135330.58912875,walking,2,2026-03-30T14:39:59.956-05:00,2026-03-30T10:54:16.334-05:00,3789,1.345529,0,0,2555.308,4,4,2026-03-30T14:39:52.236-05:00,796592400.0179602,0,-0.3399963,99.60526,1,0.9,2026-03-30T14:37:50.703-05:00,72,1.2,2026-03-30T12:48:13.834-05:00,0.1236805929763694
2026-03-30T14:40:01.539-05:00,1774899600.768515,30.28869785751173,-97.73751637985856,173.9299,0.09650254,0.42269,-1,-1,3,13.74308340190081,-9999,135332.1672657917,0.7787933349609375,0.4560699462890625,-0.509918212890625,135332.1521877917,-3.069032827007893,0.9811113305595101,-0.3717410538877245,0.5832415819168091,0.2445070594549179,0.01751014962792397,-0.03397601842880249,0.1111575663089752,0.01649808883666992,XArbitraryZVertical,0.4567841503145644,0.1796953443468785,-0.8694657381271385,-0.05556259423829715,0.7743476629257202,0.363238126039505,-0.5181156396865845,0,0,0,-1,-1,135330.58912875,walking,2,2026-03-30T14:39:59.956-05:00,2026-03-30T10:54:16.334-05:00,3789,1.345529,0,0,2555.308,4,4,2026-03-30T14:39:52.236-05:00,796592400.0179602,0,-0.3399963,99.60526,1,0.9,2026-03-30T14:37:50.703-05:00,72,1.2,2026-03-30T12:48:13.834-05:00,0.1236805929763694
2026-03-30T14:40:01.570-05:00,1774899600.768515,30.28869785751173,-97.73751637985856,173.9299,0.09650254,0.42269,-1,-1,3,13.74308340190081,-9999,135332.2011887917,0.8406982421875,0.422637939453125,-0.5127105712890625,135332.1823427917,-3.086690861372461,0.9840510465094839,-0.3599173487166035,0.7346991896629333,0.3556399941444397,0.01667340286076069,-0.003266632556915283,0.09949371218681335,0.006978750228881836,XArbitraryZVertical,0.4602780187686924,0.1704545262535475,-0.8691387378122188,-0.06072375077035348,0.7793896198272705,0.3521968722343445,-0.5181788206100464,0,0,0,-1,-1,135330.58912875,walking,2,2026-03-30T14:39:59.956-05:00,2026-03-30T10:54:16.334-05:00,3789,1.345529,0,0,2555.308,4,4,2026-03-30T14:39:52.236-05:00,796592400.0179602,0,-0.3399963,99.60526,1,0.9,2026-03-30T14:37:50.703-05:00,72,1.2,2026-03-30T12:48:13.834-05:00,0.1236805929763694
2026-03-30T14:40:01.604-05:00,1774899600.768515,30.28869785751173,-97.73751637985856,173.9299,0.09650254,0.42269,-1,-1,3,13.74308340190081,-9999,135332.2351137917,0.946685791015625,0.3744049072265625,-0.57647705078125,135332.2124987917,-3.105615869495235,0.9892060967693456,-0.3477389375092662,0.6480706930160522,0.4188290536403656,0.003432948142290115,0.0529855489730835,0.07393035292625427,-0.006339788436889648,XArbitraryZVertical,0.4647109407324593,0.16064752627376,-0.8682237337685363,-0.06651119735008891,0.7855764031410217,0.340772956609726,-0.5164722204208374,0,0,0,-1,-1,135330.58912875,walking,2,2026-03-30T14:39:59.956-05:00,2026-03-30T10:54:16.334-05:00,3789,1.345529,0,0,2555.308,4,4,2026-03-30T14:39:52.236-05:00,796592400.0179602,0,-0.3399963,99.60526,1,0.9,2026-03-30T14:37:50.703-05:00,72,1.2,2026-03-30T12:48:13.834-05:00,0.1236805929763694
2026-03-30T14:40:01.640-05:00,1774899600.768515,30.28869785751173,-97.73751637985856,173.9299,0.09650254,0.42269,-1,-1,3,13.74308340190081,-9999,135332.269040125,0.9951171875,0.1358795166015625,-0.52972412109375,135332.242654125,-3.116497828900183,1.002022368494271,-0.3385941159804521,0.2951377928256989,0.7905073761940002,0.2199010103940964,0.147552490234375,0.04799604415893555,-0.0749276876449585,XArbitraryZVertical,0.4715543677144988,0.1537104172537989,-0.8655052605924075,-0.07007358465034197,0.7947235107421875,0.3321613669395447,-0.5080191493034363,0,0,0,-1,-1,135330.58912875,walking,2,2026-03-30T14:39:59.956-05:00,2026-03-30T10:54:16.334-05:00,3789,1.345529,0,0,2555.308,4,4,2026-03-30T14:39:52.236-05:00,796592400.0179602,0,-0.3399963,99.60526,1,0.9,2026-03-30T14:37:50.703-05:00,72,1.2,2026-03-30T12:48:13.834-05:00,0.1236805929763694
2026-03-30T14:40:01.675-05:00,1774899600.768515,30.28869785751173,-97.73751637985856,173.9299,0.09650254,0.42269,-1,-1,3,13.74308340190081,-9999,135332.302965125,0.997406005859375,0.49468994140625,-0.49127197265625,135332.272810125,-3.11534372905018,1.03115819912816,-0.3351365248736083,-0.3972857892513275,1.002960801124573,0.06890751421451569,0.1790154576301575,-0.180796355009079,-0.06001853942871094,XArbitraryZVertical,0.4841866611070956,0.1514718752507804,-0.8588266973835017,-0.07096635150411679,0.81016606092453,0.3288981020450592,-0.4852390885353088,0,0,0,-1,-1,135330.58912875,walking,2,2026-03-30T14:39:59.956-05:00,2026-03-30T10:54:16.334-05:00,3789,1.345529,0,0,2555.308,4,4,2026-03-30T14:39:52.236-05:00,796592400.0179602,0,-0.3399963,99.60526,1,0.9,2026-03-30T14:37:50.703-05:00,72,1.2,2026-03-30T12:48:13.834-05:00,0.1236805929763694
2026-03-30T14:40:01.705-05:00,1774899600.768515,30.28869785751173,-97.73751637985856,173.9299,0.09650254,0.42269,-1,-1,3,13.74308340190081,-9999,135332.336889125,0.78009033203125,0.477020263671875,-0.4239044189453125,135332.302965125,-3.10013425404047,1.066561515694106,-0.3402113670288858,-0.4745908379554749,1.028597712516785,0.1701204627752304,0.1547101140022278,0.08097115159034729,-0.05781379342079163,XArbitraryZVertical,0.4978947214478611,0.1561338099647248,-0.8503163056573183,-0.06844830849932808,0.8253617882728577,0.333686351776123,-0.4554461538791656,0,0,0,-1,-1,135330.58912875,walking,2,2026-03-30T14:39:59.956-05:00,2026-03-30T10:54:16.334-05:00,3789,1.345529,0,0,2555.308,4,4,2026-03-30T14:39:52.236-05:00,796592400.0179602,0,-0.3399963,99.60526,1,0.9,2026-03-30T14:37:50.703-05:00,72,1.2,2026-03-30T12:48:13.834-05:00,0.1236805929763694
2026-03-30T14:40:01.740-05:00,1774899600.768515,30.28869785751173,-97.73751637985856,173.9299,0.09650254,0.42269,-1,-1,3,13.74308340190081,-9999,135332.370814125,0.8040008544921875,0.419769287109375,-0.369171142578125,135332.363276125,-3.068820898894108,1.153735020508815,-0.348076426066961,-0.8592380881309509,1.508061647415161,-0.02818134427070618,-0.06300646066665649,-0.007304251194000244,9.161233901977539e-05,XArbitraryZVertical,0.5315265456756361,0.1645839540129566,-0.828402674486635,-0.06434922819420716,0.859454333782196,0.3410902321338654,-0.3807833194732666,0,0,0,-1,-1,135330.58912875,walking,2,2026-03-30T14:39:59.956-05:00,2026-03-30T10:54:16.334-05:00,3789,1.345529,0,0,2555.308,4,4,2026-03-30T14:39:52.236-05:00,796592400.0179602,0,-0.3399963,99.60526,1,0.9,2026-03-30T14:37:50.703-05:00,72,1.2,2026-03-30T12:48:13.834-05:00,0.1236805929763694
2026-03-30T14:40:01.775-05:00,1774899600.768515,30.28869785751173,-97.73751637985856,173.9299,0.09650254,0.42269,-1,-1,3,13.74308340190081,-9999,135332.404740125,0.772674560546875,0.6431427001953125,-0.268463134765625,135332.393432125,-3.048266775345225,1.210160394443009,-0.3558665646920434,-0.4600567519664764,1.76303231716156,0.04185950011014938,-0.07794523239135742,0.2880565226078033,-0.01566010713577271,XArbitraryZVertical,0.5524474206435434,0.1715275736249413,-0.8132864183245393,-0.06281201737773949,0.8770479559898376,0.3484027683734894,-0.330760270357132,0,0,0,-1,-1,135330.58912875,walking,2,2026-03-30T14:39:59.956-05:00,2026-03-30T10:54:16.334-05:00,3789,1.345529,0,0,2555.308,4,4,2026-03-30T14:39:52.236-05:00,796592400.0179602,0,-0.3399963,99.60526,1,0.9,2026-03-30T14:37:50.703-05:00,72,1.2,2026-03-30T12:48:13.834-05:00,0.1236805929763694
2026-03-30T14:40:01.810-05:00,1774899600.768515,30.28869785751173,-97.73751637985856,173.9299,0.09650254,0.42269,-1,-1,3,13.74308340190081,-9999,135332.438665125,0.79913330078125,0.6571044921875,-0.1033935546875,135332.423587125,-3.03788661867044,1.269167226304874,-0.3588703929974865,-0.18660669028759,1.871286392211914,0.0003002379380632192,-0.1065484285354614,0.2605994939804077,0.0693492591381073,XArbitraryZVertical,0.5750905301670954,0.173768701199958,-0.7968077911173802,-0.06459531091798906,0.8940239548683167,0.3512168228626251,-0.2781506478786469,0,0,0,-1,-1,135330.58912875,walking,2,2026-03-30T14:39:59.956-05:00,2026-03-30T10:54:16.334-05:00,3789,1.345529,0,0,2555.308,4,4,2026-03-30T14:39:52.236-05:00,796592400.0179602,0,-0.3399963,99.60526,1,0.9,2026-03-30T14:37:50.703-05:00,72,1.2,2026-03-30T12:48:13.834-05:00,0.1236805929763694
2026-03-30T14:40:01.841-05:00,1774899601.768514,30.28869757706494,-97.73751718244118,173.8939,0.1792719,0.4069107,-1,-1,3,12.40317045989023,-9999,135332.472588125,0.8115386962890625,0.634124755859375,-0.0595550537109375,135332.453743125,-3.040922001125416,1.324306215694629,-0.3587666661337572,0.3647777438163757,1.842775344848633,-0.03867567330598831,-0.1099035739898682,0.3146364092826843,0.1406517773866653,XArbitraryZVertical,0.5971047396568568,0.1709761110281368,-0.7805515793528711,-0.07051388124518218,0.9080297350883484,0.3511196970939636,-0.22846619784832,0,0,0,-1,-1,135330.58912875,walking,2,2026-03-30T14:39:59.956-05:00,2026-03-30T10:54:16.334-05:00,3789,1.345529,0,0,2555.308,4,4,2026-03-30T14:39:52.236-05:00,796592400.0179602,0,-0.3399963,99.60526,1,0.9,2026-03-30T14:37:50.703-05:00,72,1.2,2026-03-30T12:48:13.834-05:00,0.1236805929763694
2026-03-30T14:40:01.876-05:00,1774899601.768514,30.28869757706494,-97.73751718244118,173.8939,0.1792719,0.4069107,-1,-1,3,12.40317045989023,-9999,135332.506514125,0.807403564453125,0.64166259765625,-0.0058441162109375,135332.483898125,-3.058884364496715,1.371568382208893,-0.3569284920267444,0.7781438827514648,1.696938753128052,-0.0939679741859436,-0.1187276840209961,0.271924614906311,0.1467731595039368,XArbitraryZVertical,0.6170093499423119,0.1630335401653644,-0.7656273448449388,-0.08083515151647601,0.9184407591819763,0.3493979573249817,-0.1854390501976013,0,0,0,-1,-1,135330.58912875,walking,2,2026-03-30T14:39:59.956-05:00,2026-03-30T10:54:16.334-05:00,3789,1.345529,0,0,2555.308,4,4,2026-03-30T14:39:52.236-05:00,796592400.0179602,0,-0.3399963,99.60526,1,0.9,2026-03-30T14:37:50.703-05:00,72,1.2,2026-03-30T12:48:13.834-05:00,0.1236805929763694
2026-03-30T14:40:01.911-05:00,1774899601.768514,30.28869757706494,-97.73751718244118,173.8939,0.1792719,0.4069107,-1,-1,3,12.40317045989023,-9999,135332.540439125,0.80706787109375,0.52374267578125,-0.0677337646484375,135332.514054125,-3.093318833770618,1.406965346460084,-0.3553427916448519,1.267218351364136,1.446572661399841,-0.1861960142850876,-0.1195077896118164,0.2879371345043182,0.1511091738939285,XArbitraryZVertical,0.6332559762005334,0.1501064932812992,-0.753129678832845,-0.09617947292752614,0.9249734282493591,0.3479117751121521,-0.1529098153114319,0,0,0,-1,-1,135330.58912875,walking,2,2026-03-30T14:39:59.956-05:00,2026-03-30T10:54:16.334-05:00,3789,1.345529,0,0,2555.308,4,4,2026-03-30T14:39:52.236-05:00,796592400.0179602,0,-0.3399963,99.60526,1,0.9,2026-03-30T14:37:50.703-05:00,72,1.2,2026-03-30T12:48:13.834-05:00,0.1236805929763694
2026-03-30T14:40:01.946-05:00,1774899601.768514,30.28869757706494,-97.73751718244118,173.8939,0.1792719,0.4069107,-1,-1,3,12.40317045989023,-9999,135332.574365125,0.7958831787109375,0.4659271240234375,-0.07916259765625,135332.544209125,-3.138264054584263,1.431620338104017,-0.3565050289409421,1.540692448616028,1.205318808555603,-0.2613236904144287,-0.1200317740440369,0.1751686930656433,0.0664055347442627,XArbitraryZVertical,0.6456074702618462,0.1348660653100151,-0.7427984682503581,-0.1151199060760798,0.9280609488487244,0.3490011692047119,-0.1300042718648911,0,0,0,-1,-1,135330.58912875,walking,2,2026-03-30T14:39:59.956-05:00,2026-03-30T10:54:16.334-05:00,3789,1.345529,0,0,2555.308,4,4,2026-03-30T14:39:52.236-05:00,796592400.0179602,0,-0.3399963,99.60526,1,0.9,2026-03-30T14:37:50.703-05:00,72,1.2,2026-03-30T12:48:13.834-05:00,0.1236805929763694
2026-03-30T14:40:01.976-05:00,1774899601.768514,30.28869757706494,-97.73751718244118,173.8939,0.1792719,0.4069107,-1,-1,3,12.40317045989023,-9999,135332.608288125,0.7532196044921875,0.451416015625,-0.059173583984375,135332.574365125,3.090248866571239,1.444744964231307,-0.3593405439618153,1.813410997390747,0.9485417604446411,-0.3432915508747101,-0.1234801411628723,0.1186798810958862,0.04200439155101776,XArbitraryZVertical,0.6537505843180156,0.1173291100656898,-0.7348863538092715,-0.137062860381725,0.9287018179893494,0.351656973361969,-0.1176881045103073,0,0,0,-1,-1,135330.58912875,walking,2,2026-03-30T14:39:59.956-05:00,2026-03-30T10:54:16.334-05:00,3789,1.345529,0,0,2555.308,4,4,2026-03-30T14:39:52.236-05:00,796592400.0179602,0,-0.3399963,99.60526,1,0.9,2026-03-30T14:37:50.703-05:00,72,1.2,2026-03-30T12:48:13.834-05:00,0.1236805929763694
2026-03-30T14:40:02.012-05:00,1774899601.768514,30.28869757706494,-97.73751718244118,173.8939,0.1792719,0.4069107,-1,-1,3,12.40317045989023,-9999,135332.642213125,0.7576751708984375,0.367431640625,-0.097137451171875,135332.634675125,2.940359227316814,1.438410598911423,-0.358577270405471,2.954111814498901,0.6913018822669983,-0.153970941901207,-0.1707723736763,0.04813593626022339,0.06955713033676147,XArbitraryZVertical,0.6584249466336327,0.06837162857547714,-0.7247256279365276,-0.191245036711515,0.9282034039497375,0.3509423434734344,-0.1236038208007812,0,0,0,-1,-1,135330.58912875,walking,2,2026-03-30T14:39:59.956-05:00,2026-03-30T10:54:16.334-05:00,3789,1.345529,0,0,2555.308,4,4,2026-03-30T14:39:52.236-05:00,796592400.0179602,0,-0.3399963,99.60526,1,0.9,2026-03-30T14:37:50.703-05:00,72,1.2,2026-03-30T12:48:13.834-05:00,0.1236805929763694
2026-03-30T14:40:02.057-05:00,1774899601.768514,30.28869757706494,-97.73751718244118,173.8939,0.1792719,0.4069107,-1,-1,3,12.40317045989023,-9999,135332.676139125,0.7831268310546875,0.2225189208984375,-0.1660003662109375,135332.664831125,2.837031091175657,1.424322830039631,-0.3467298578198129,3.45467472076416,0.7727011442184448,0.05419201403856277,-0.1414167284965515,-0.05533933639526367,-0.006412193179130554,XArbitraryZVertical,0.6560338682964174,0.03142035261802936,-0.7198768345833138,-0.2245208238655175,0.9304181337356567,0.3398241102695465,-0.1372646540403366,0,0,0,-1,-1,135330.58912875,walking,2,2026-03-30T14:39:59.956-05:00,2026-03-30T10:54:16.334-05:00,3789,1.345529,0,0,2555.308,4,4,2026-03-30T14:39:52.236-05:00,796592400.0179602,0,-0.3399963,99.60526,1,0.9,2026-03-30T14:37:50.703-05:00,72,1.2,2026-03-30T12:48:13.834-05:00,0.1236805929763694
2026-03-30T14:40:02.082-05:00,1774899601.768514,30.28869757706494,-97.73751718244118,173.8939,0.1792719,0.4069107,-1,-1,3,12.40317045989023,-9999,135332.710064125,0.768218994140625,0.062713623046875,-0.01812744140625,135332.694986125,2.722284257925717,1.411454914463503,-0.3248547137138422,3.751665353775024,0.8575608134269714,0.2766653597354889,-0.1514509320259094,-0.1529113948345184,-0.005987659096717834,XArbitraryZVertical,0.6516526094017235,-0.01281665381393026,-0.7128452816648837,-0.258913782712124,0.935691773891449,0.3191711008548737,-0.1503692269325256,0,0,0,-1,-1,135330.58912875,walking,2,2026-03-30T14:39:59.956-05:00,2026-03-30T10:54:16.334-05:00,3789,1.345529,0,0,2555.308,4,4,2026-03-30T14:39:52.236-05:00,796592400.0179602,0,-0.3399963,99.60526,1,0.9,2026-03-30T14:37:50.703-05:00,72,1.2,2026-03-30T12:48:13.834-05:00,0.1236805929763694
2026-03-30T14:40:02.112-05:00,1774899601.768514,30.28869757706494,-97.73751718244118,173.8939,0.1792719,0.4069107,-1,-1,3,12.40317045989023,-9999,135332.743988125,0.75042724609375,-0.1175079345703125,0.053863525390625,135332.725142125,2.609163022826004,1.404285958622809,-0.2951677265899807,3.578384637832642,0.9622150659561157,0.5151504278182983,-0.2007685303688049,-0.2857734858989716,0.1799669861793518,XArbitraryZVertical,0.6458655502361034,-0.05975440776364472,-0.7035734693242275,-0.290295371081656,0.9435206055641174,0.290900319814682,-0.1585742086172104,0,0,0,-1,-1,135330.58912875,walking,2,2026-03-30T14:39:59.956-05:00,2026-03-30T10:54:16.334-05:00,3789,1.345529,0,0,2555.308,4,4,2026-03-30T14:39:52.236-05:00,796592400.0179602,0,-0.3399963,99.60526,1,0.9,2026-03-30T14:37:50.703-05:00,72,1.2,2026-03-30T12:48:13.834-05:00,0.1236805929763694
2026-03-30T14:40:02.147-05:00,1774899601.768514,30.28869757706494,-97.73751718244118,173.8939,0.1792719,0.4069107,-1,-1,3,12.40317045989023,-9999,135332.777913125,0.7555389404296875,-0.398712158203125,-0.10693359375,135332.755297125,2.511705046744848,1.409871689170832,-0.2595358916969843,2.784171104431152,1.234015107154846,0.7789278030395508,-0.2054405212402344,-0.4254248440265656,0.1774476766586304,XArbitraryZVertical,0.6414632826623941,-0.1053209646753965,-0.6921270623755744,-0.313675782589423,0.9540214538574219,0.256632000207901,-0.1548646986484528,0,0,0,-1,-1,135330.58912875,walking,2,2026-03-30T14:39:59.956-05:00,2026-03-30T10:54:16.334-05:00,3789,1.345529,0,0,2555.308,4,4,2026-03-30T14:39:52.236-05:00,796592400.0179602,0,-0.3399963,99.60526,1,0.9,2026-03-30T14:37:50.703-05:00,72,1.2,2026-03-30T12:48:13.834-05:00,0.1236805929763694
2026-03-30T14:40:02.183-05:00,1774899601.768514,30.28869757706494,-97.73751718244118,173.8939,0.1792719,0.4069107,-1,-1,3,12.40317045989023,-9999,135332.811839125,1.7305908203125,0.6361541748046875,-0.168670654296875,135332.785453125,2.455159318454762,1.440568126402669,-0.225423876214633,0.9864346981048584,1.645249485969543,0.820391833782196,-0.2088624238967896,-0.626244843006134,0.0244019627571106,XArbitraryZVertical,0.6456355257082833,-0.1409515112551691,-0.6783254185676223,-0.3211885834484285,0.9664459824562073,0.2235195338726044,-0.1265748739242554,0,0,0,-1,-1,135330.58912875,walking,2,2026-03-30T14:39:59.956-05:00,2026-03-30T10:54:16.334-05:00,3789,1.345529,0,0,2555.308,4,4,2026-03-30T14:39:52.236-05:00,796592400.0179602,0,-0.3399963,99.60526,1,0.9,2026-03-30T14:37:50.703-05:00,72,1.2,2026-03-30T12:48:13.834-05:00,0.1236805929763694
2026-03-30T14:40:02.218-05:00,1774899601.768514,30.28869757706494,-97.73751718244118,173.8939,0.1792719,0.4069107,-1,-1,3,12.40317045989023,-9999,135332.845764125,0.119110107421875,-0.1030426025390625,-0.8284149169921875,135332.815608125,2.441483252954733,1.4534229458628,-0.2192493923188007,0.6331866979598999,-0.6473826169967651,0.07582061737775803,0.6658627390861511,0.2970902323722839,0.01235669851303101,XArbitraryZVertical,0.6484162804561932,-0.1496862398511612,-0.6728954279894548,-0.3230512797383459,0.9693453907966614,0.2174970507621765,-0.1143007129430771,0,0,0,-1,-1,135330.58912875,walking,2,2026-03-30T14:39:59.956-05:00,2026-03-30T10:54:16.334-05:00,3789,1.345529,0,0,2555.308,4,4,2026-03-30T14:39:52.236-05:00,796592400.0179602,0,-0.3399963,99.60526,1,0.9,2026-03-30T14:37:50.703-05:00,72,1.2,2026-03-30T12:48:13.834-05:00,0.1236805929763694
2026-03-30T14:40:02.248-05:00,1774899601.768514,30.28869757706494,-97.73751718244118,173.8939,0.1792719,0.4069107,-1,-1,3,12.40317045989023,-9999,135332.879687125,1.102386474609375,0.236297607421875,-0.6640472412109375,135332.845764125,2.452976126478503,1.476286804105195,-0.2006520230712519,-0.7140251398086548,1.211925864219666,0.2868922650814056,-0.4854666590690613,-0.2540111839771271,-1.047218680381775,XArbitraryZVertical,0.6552449036754827,-0.1562572833469854,-0.6700533149843589,-0.3118755549573576,0.9755637049674988,0.1993083208799362,-0.09247555583715439,0,0,0,-1,-1,135330.58912875,walking,2,2026-03-30T14:39:59.956-05:00,2026-03-30T10:54:16.334-05:00,3789,1.345529,0,0,2555.308,4,4,2026-03-30T14:39:52.236-05:00,796592400.0179602,0,-0.3399963,99.60526,1,0.9,2026-03-30T14:37:50.703-05:00,72,1.2,2026-03-30T12:48:13.834-05:00,0.1236805929763694
2026-03-30T14:40:02.283-05:00,1774899601.768514,30.28869757706494,-97.73751718244118,173.8939,0.1792719,0.4069107,-1,-1,3,12.40317045989023,-9999,135332.913613125,0.87530517578125,-0.36151123046875,-0.2033843994140625,135332.906075125,2.44825555113302,1.547181248559175,-0.1513740825433282,-0.4227492809295654,1.254288792610168,0.8105875253677368,0.0263134241104126,-0.4889162480831146,-0.3796722888946533,XArbitraryZVertical,0.6736406540019551,-0.1858408880665327,-0.6529698181291694,-0.2920649336350228,0.9882892370223999,0.1507966369390488,-0.02334286645054817,0,0,0,-1,-1,135330.58912875,walking,2,2026-03-30T14:39:59.956-05:00,2026-03-30T10:54:16.334-05:00,3789,1.345529,0,0,2555.308,4,4,2026-03-30T14:39:52.236-05:00,796592400.0179602,0,-0.3399963,99.60526,1,0.9,2026-03-30T14:37:50.703-05:00,72,1.2,2026-03-30T12:48:13.834-05:00,0.1236805929763694
2026-03-30T14:40:02.318-05:00,1774899601.768514,30.28869757706494,-97.73751718244118,173.8939,0.1792719,0.4069107,-1,-1,3,12.40317045989023,-9999,135332.947538125,1.026214599609375,0.0839691162109375,0.17535400390625,135332.936230125,2.464979018688386,1.589803772219147,-0.1273176157079523,-0.5943232774734497,1.482812523841858,0.7272262573242188,0.01459026336669922,-0.15495865046978,-0.2192308902740479,XArbitraryZVertical,0.6867586103800976,-0.1943935264756072,-0.6442483650219919,-0.2748049655955734,0.991726815700531,0.1269739270210266,0.01885246485471725,0,0,0,-1,-1,135330.58912875,walking,2,2026-03-30T14:39:59.956-05:00,2026-03-30T10:54:16.334-05:00,3789,1.345529,0,0,2555.308,4,4,2026-03-30T14:39:52.236-05:00,796592400.0179602,0,-0.3399963,99.60526,1,0.9,2026-03-30T14:37:50.703-05:00,72,1.2,2026-03-30T12:48:13.834-05:00,0.1236805929763694
2026-03-30T14:40:02.353-05:00,1774899601.768514,30.28869757706494,-97.73751718244118,173.8939,0.1792719,0.4069107,-1,-1,3,12.40317045989023,-9999,135332.981464125,0.778106689453125,0.0327911376953125,0.545166015625,135332.966386125,2.463680619864696,1.635617288205169,-0.1033820538258988,0.6132302284240723,1.411858677864075,0.9368146061897278,-0.01422417163848877,0.4576234221458435,0.380913257598877,XArbitraryZVertical,0.6989624953691098,-0.2089648181332714,-0.6315173009491527,-0.2626233848228229,0.9925718903541565,0.1031979992985725,0.06442973017692566,0,0,0,-1,-1,135330.58912875,walking,2,2026-03-30T14:39:59.956-05:00,2026-03-30T10:54:16.334-05:00,3789,1.345529,0,0,2555.308,4,4,2026-03-30T14:39:52.236-05:00,796592400.0179602,0,-0.3399963,99.60526,1,0.9,2026-03-30T14:37:50.703-05:00,72,1.2,2026-03-30T12:48:13.834-05:00,0.1236805929763694
2026-03-30T14:40:02.384-05:00,1774899601.768514,30.28869757706494,-97.73751718244118,173.8939,0.1792719,0.4069107,-1,-1,3,12.40317045989023,-9999,135333.015387125,1.009613037109375,-0.1167755126953125,0.396270751953125,135332.996541125,2.453108205487096,1.676179561264598,-0.08080054855926669,0.1903863251209259,1.261086225509644,0.7190496325492859,-0.1898620128631592,-0.173028439283371,0.4344614744186401,XArbitraryZVertical,0.7083009014059087,-0.2252385006403299,-0.6189951896388349,-0.2538156824084097,0.9912078380584717,0.08071265369653702,0.1048450991511345,0,0,0,-1,-1,135330.58912875,walking,2,2026-03-30T14:39:59.956-05:00,2026-03-30T10:54:16.334-05:00,3789,1.345529,0,0,2555.308,4,4,2026-03-30T14:39:52.236-05:00,796592400.0179602,0,-0.3399963,99.60526,1,0.9,2026-03-30T14:37:50.703-05:00,72,1.2,2026-03-30T12:48:13.834-05:00,0.1236805929763694
2026-03-30T14:40:02.418-05:00,1774899601.768514,30.28869757706494,-97.73751718244118,173.8939,0.1792719,0.4069107,-1,-1,3,12.40317045989023,-9999,135333.049313125,1.025466918945312,-0.19061279296875,0.377838134765625,135333.026697125,2.441657359888513,1.710257149507359,-0.06167276813368332,0.3433118760585785,1.056978464126587,0.6308761239051819,-0.01843768358230591,-0.2070652842521667,0.2302125841379166,XArbitraryZVertical,0.7155098674508715,-0.2396207256909236,-0.6080793789584916,-0.2467125472678605,0.9884084463119507,0.06163368001580238,0.1387449204921722,0,0,0,-1,-1,135330.58912875,walking,2,2026-03-30T14:39:59.956-05:00,2026-03-30T10:54:16.334-05:00,3789,1.345529,0,0,2555.308,4,4,2026-03-30T14:39:52.236-05:00,796592400.0179602,0,-0.3399963,99.60526,1,0.9,2026-03-30T14:37:50.703-05:00,72,1.2,2026-03-30T12:48:13.834-05:00,0.1236805929763694
2026-03-30T14:40:02.454-05:00,1774899601.768514,30.28869757706494,-97.73751718244118,173.8939,0.1792719,0.4069107,-1,-1,3,12.40317045989023,-9999,135333.083238125,0.95159912109375,0.019989013671875,0.37017822265625,135333.056852125,2.436079718316335,1.739020794486765,-0.04559217971306912,-0.133996918797493,0.8784193396568298,0.4838708937168121,0.04636037349700928,-0.2389663755893707,0.2197046428918839,XArbitraryZVertical,0.7218629318079256,-0.2500859784373674,-0.5992978866639392,-0.2391924892212657,0.9848592281341553,0.04557638615369797,0.1672581732273102,0,0,0,-1,-1,135330.58912875,walking,2,2026-03-30T14:39:59.956-05:00,2026-03-30T10:54:16.334-05:00,3789,1.345529,0,0,2555.308,4,4,2026-03-30T14:39:52.236-05:00,796592400.0179602,0,-0.3399963,99.60526,1,0.9,2026-03-30T14:37:50.703-05:00,72,1.2,2026-03-30T12:48:13.834-05:00,0.1236805929763694
2026-03-30T14:40:02.489-05:00,1774899601.768514,30.28869757706494,-97.73751718244118,173.8939,0.1792719,0.4069107,-1,-1,3,12.40317045989023,-9999,135333.117163125,0.98431396484375,-0.02691650390625,0.3426666259765625,135333.087008125,2.433740235566889,1.763245170115999,-0.03244109794208255,0.05386994406580925,0.7312829494476318,0.4173366725444794,-0.03125429153442383,-0.01333151012659073,0.181579202413559,XArbitraryZVertical,0.7274161528104393,-0.2577730819657256,-0.5920690765720438,-0.232105341518168,0.9810222387313843,0.03243540972471237,0.1911624372005463,0,0,0,-1,-1,135330.58912875,walking,2,2026-03-30T14:39:59.956-05:00,2026-03-30T10:54:16.334-05:00,3789,1.345529,0,0,2555.308,4,4,2026-03-30T14:39:52.236-05:00,796592400.0179602,0,-0.3399963,99.60526,1,0.9,2026-03-30T14:37:50.703-05:00,72,1.2,2026-03-30T12:48:13.834-05:00,0.1236805929763694
2026-03-30T14:40:02.519-05:00,1774899601.768514,30.28869757706494,-97.73751718244118,173.8939,0.1792719,0.4069107,-1,-1,3,12.40317045989023,-9999,135333.151087125,0.99072265625,-0.014617919921875,0.27740478515625,135333.117163125,2.433959817277284,1.783845952875247,-0.02060761345500283,-0.09666701406240463,0.6451208591461182,0.3487879633903503,0.02443426847457886,-0.07451555877923965,0.1473526954650879,XArbitraryZVertical,0.7322747066695443,-0.2635755859907838,-0.5862119785376392,-0.2250716045591363,0.9771831631660461,0.02060615457594395,0.2113966643810272,0,0,0,-1,-1,135330.58912875,walking,2,2026-03-30T14:39:59.956-05:00,2026-03-30T10:54:16.334-05:00,3789,1.345529,0,0,2555.308,4,4,2026-03-30T14:39:52.236-05:00,796592400.0179602,0,-0.3399963,99.60526,1,0.9,2026-03-30T14:37:50.703-05:00,72,1.2,2026-03-30T12:48:13.834-05:00,0.1236805929763694
2026-03-30T14:40:02.556-05:00,1774899601.768514,30.28869757706494,-97.73751718244118,173.8939,0.1792719,0.4069107,-1,-1,3,12.40317045989023,-9999,135333.185012125,0.9641571044921875,0.0470123291015625,0.215911865234375,135333.177474125,2.433991281986867,1.820576753166955,0.00101351592674462,-0.1044902428984642,0.6135220527648926,0.340758204460144,0.002453982830047607,0.02387108281254768,-0.006880402565002441,XArbitraryZVertical,0.7406621812918398,-0.2738888049449256,-0.5756569805957938,-0.2121874838038305,0.9689662456512451,-0.001013515749946237,0.2471910864114761,0,0,0,-1,-1,135330.58912875,walking,2,2026-03-30T14:39:59.956-05:00,2026-03-30T10:54:16.334-05:00,3789,1.345529,0,0,2555.308,4,4,2026-03-30T14:39:52.236-05:00,796592400.0179602,0,-0.3399963,99.60526,1,0.9,2026-03-30T14:37:50.703-05:00,72,1.2,2026-03-30T12:48:13.834-05:00,0.1236805929763694
2026-03-30T14:40:02.589-05:00,1774899601.768514,30.28869757706494,-97.73751718244118,173.8939,0.1792719,0.4069107,-1,-1,3,12.40317045989023,-9999,135333.218938125,0.9617462158203125,0.0205078125,0.212066650390625,135333.207630125,2.434326492664024,1.839673275472947,0.0117979734813818,-0.1034100651741028,0.6567709445953369,0.3474116027355194,0.01240718364715576,0.04863231629133224,-0.05238893628120422,XArbitraryZVertical,0.7450266728883213,-0.2788376827166582,-0.5700695424853445,-0.2054396518821833,0.9640026688575745,-0.0117977000772953,0.2656303942203522,0,0,0,-1,-1,135330.58912875,walking,2,2026-03-30T14:39:59.956-05:00,2026-03-30T10:54:16.334-05:00,3789,1.345529,0,0,2555.308,4,4,2026-03-30T14:39:52.236-05:00,796592400.0179602,0,-0.3399963,99.60526,1,0.9,2026-03-30T14:37:50.703-05:00,72,1.2,2026-03-30T12:48:13.834-05:00,0.1236805929763694
2026-03-30T14:40:02.624-05:00,1774899601.768514,30.28869757706494,-97.73751718244118,173.8939,0.1792719,0.4069107,-1,-1,3,12.40317045989023,-9999,135333.25286275,0.970550537109375,0.0495758056640625,0.182373046875,135333.23778475,2.433881338298828,1.860646428065925,0.02253597897293894,-0.06382805854082108,0.7343996167182922,0.3569340705871582,0.003504395484924316,0.03498514741659164,-0.09014892578125,XArbitraryZVertical,0.7497547421392575,-0.2841405178574751,-0.5636463698158899,-0.1985819192714809,0.9580433964729309,-0.02253407053649426,0.2857360243797302,0,0,0,-1,-1,135333.162397125,walking,2,2026-03-30T14:40:02.529-05:00,2026-03-30T10:54:16.334-05:00,3789,1.345529,0,0,2555.308,4,4,2026-03-30T14:39:52.236-05:00,796592402.5927455,0,-0.3199997,99.60526,1,0.9,2026-03-30T14:37:50.703-05:00,72,1.2,2026-03-30T12:48:13.834-05:00,0.1236805929763694
2026-03-30T14:40:02.655-05:00,1774899601.768514,30.28869757706494,-97.73751718244118,173.8939,0.1792719,0.4069107,-1,-1,3,12.40317045989023,-9999,135333.28678675,0.953277587890625,0.0261993408203125,0.194244384765625,135333.26794075,2.429880105002086,1.884310441367673,0.03307601434071401,0.1029088199138641,0.8318257331848145,0.3919092416763306,0.005441367626190186,0.1119578331708908,-0.1311106979846954,XArbitraryZVertical,0.7546614244714608,-0.2908667345108596,-0.5557888406847047,-0.1923054347537171,0.950735330581665,-0.03306998312473297,0.3082346320152283,0,0,0,-1,-1,135333.162397125,walking,2,2026-03-30T14:40:02.529-05:00,2026-03-30T10:54:16.334-05:00,3789,1.345529,0,0,2555.308,4,4,2026-03-30T14:39:52.236-05:00,796592402.5927455,0,-0.3199997,99.60526,1,0.9,2026-03-30T14:37:50.703-05:00,72,1.2,2026-03-30T12:48:13.834-05:00,0.1236805929763694
2026-03-30T14:40:02.690-05:00,1774899601.768514,30.28869757706494,-97.73751718244118,173.8939,0.1792719,0.4069107,-1,-1,3,12.40317045989023,-9999,135333.32071175,0.9482421875,0.018707275390625,0.2346649169921875,135333.29809575,2.421755795423892,1.911083857356573,0.04302108494410402,0.2663297355175018,0.9096841216087341,0.4067893922328949,0.0006573200225830078,0.06983267515897751,-0.138609915971756,XArbitraryZVertical,0.7597526715936006,-0.2991663930934805,-0.5462459352832816,-0.1867904171387382,0.9417864680290222,-0.04300781711935997,0.3334493041038513,0,0,0,-1,-1,135333.162397125,walking,2,2026-03-30T14:40:02.529-05:00,2026-03-30T10:54:16.334-05:00,3789,1.345529,0,0,2555.308,4,4,2026-03-30T14:39:52.236-05:00,796592402.5927455,0,-0.3199997,99.60526,1,0.9,2026-03-30T14:37:50.703-05:00,72,1.2,2026-03-30T12:48:13.834-05:00,0.1236805929763694
2026-03-30T14:40:02.726-05:00,1774899601.768514,30.28869757706494,-97.73751718244118,173.8939,0.1792719,0.4069107,-1,-1,3,12.40317045989023,-9999,135333.35463675,0.968048095703125,0.0216827392578125,0.205322265625,135333.32825175,2.407895583322781,1.941416940976415,0.05215865656744469,0.465306431055069,1.033379912376404,0.481832891702652,0.01206648349761963,0.0817369669675827,-0.1331399977207184,XArbitraryZVertical,0.7648296785113593,-0.3096550372299951,-0.5346797158268384,-0.1823919314985559,0.9308350086212158,-0.05213500931859016,0.3617013692855835,0,0,0,-1,-1,135333.162397125,walking,2,2026-03-30T14:40:02.529-05:00,2026-03-30T10:54:16.334-05:00,3789,1.345529,0,0,2555.308,4,4,2026-03-30T14:39:52.236-05:00,796592402.5927455,0,-0.3199997,99.60526,1,0.9,2026-03-30T14:37:50.703-05:00,72,1.2,2026-03-30T12:48:13.834-05:00,0.1236805929763694
2026-03-30T14:40:02.760-05:00,1774899601.768514,30.28869757706494,-97.73751718244118,173.8939,0.1792719,0.4069107,-1,-1,3,12.40317045989023,-9999,135333.38856275,0.973846435546875,0.0610198974609375,0.0866241455078125,135333.35840675,2.386464579986221,1.975830978980395,0.05984186462052406,0.6569474935531616,1.171316146850586,0.5265251994132996,0.05301541090011597,0.07862015813589096,-0.1866039931774139,XArbitraryZVertical,0.7696579265074349,-0.322953945242859,-0.5206406732028558,-0.179612107209083,0.9174433350563049,-0.05980615317821503,0.3933451473712921,0,0,0,-1,-1,135333.162397125,walking,2,2026-03-30T14:40:02.529-05:00,2026-03-30T10:54:16.334-05:00,3789,1.345529,0,0,2555.308,4,4,2026-03-30T14:39:52.236-05:00,796592402.5927455,0,-0.3199997,99.60526,1,0.9,2026-03-30T14:37:50.703-05:00,72,1.2,2026-03-30T12:48:13.834-05:00,0.1236805929763694
2026-03-30T14:40:02.791-05:00,1774899601.768514,30.28869757706494,-97.73751718244118,173.8939,0.1792719,0.4069107,-1,-1,3,12.40317045989023,-9999,135333.42248575,1.015609741210938,0.156524658203125,-0.179595947265625,135333.38856275,2.358998787945646,2.015725640572512,0.06561511387048963,0.8299919366836548,1.385326981544495,0.5655118227005005,0.07372754812240601,0.1266488879919052,-0.3153627514839172,XArbitraryZVertical,0.774674703185839,-0.3385454667084595,-0.5036462811986854,-0.1777819051714613,0.9006986021995544,-0.06556804478168488,0.4294678568840027,0,0,0,-1,-1,135333.162397125,walking,2,2026-03-30T14:40:02.529-05:00,2026-03-30T10:54:16.334-05:00,3789,1.345529,0,0,2555.308,4,4,2026-03-30T14:39:52.236-05:00,796592402.5927455,0,-0.3199997,99.60526,1,0.9,2026-03-30T14:37:50.703-05:00,72,1.2,2026-03-30T12:48:13.834-05:00,0.1236805929763694
2026-03-30T14:40:02.826-05:00,1774899601.768514,30.28869757706494,-97.73751718244118,173.8939,0.1792719,0.4069107,-1,-1,3,12.40317045989023,-9999,135333.45641175,1.001312255859375,0.30499267578125,-0.3541717529296875,135333.44887375,2.291295376637596,2.129361626586598,0.07170296523231093,1.101929545402527,2.452633142471313,0.716444730758667,0.1318238377571106,0.2700819969177246,-0.8626232743263245,XArbitraryZVertical,0.7890930100465304,-0.3763460461054668,-0.4542735161132299,-0.1712640589075214,0.8458372354507446,-0.07164154201745987,0.5286082625389099,0,0,0,-1,-1,135333.162397125,walking,2,2026-03-30T14:40:02.529-05:00,2026-03-30T10:54:16.334-05:00,3789,1.345529,0,0,2555.308,4,4,2026-03-30T14:39:52.236-05:00,796592402.5927455,0,-0.3199997,99.60526,1,0.9,2026-03-30T14:37:50.703-05:00,72,1.2,2026-03-30T12:48:13.834-05:00,0.1236805929763694
2026-03-30T14:40:02.861-05:00,1774899602.768516,30.28870058160175,-97.73751231816502,173.8429,0.158708,0.3709396,-1,-1,3,11.25481631964706,-9999,135333.49033675,1.487625122070312,0.5667266845703125,-0.2061920166015625,135333.47902875,2.241756194048869,2.213867003346831,0.06628222968708489,1.770825386047363,2.900865316390991,0.8369123935699463,0.4260473847389221,0.472773551940918,-0.9013326168060303,XArbitraryZVertical,0.7984400685955544,-0.4020731439561026,-0.4155475885509677,-0.1677817498793979,0.7985007762908936,-0.06623370945453644,0.5983387231826782,0,0,0,-1,-1,135333.162397125,walking,2,2026-03-30T14:40:02.529-05:00,2026-03-30T10:54:16.334-05:00,3789,1.345529,0,0,2555.308,4,4,2026-03-30T14:39:52.236-05:00,796592402.5927455,0,-0.3199997,99.60526,1,0.9,2026-03-30T14:37:50.703-05:00,72,1.2,2026-03-30T12:48:13.834-05:00,0.1236805929763694
2026-03-30T14:40:02.896-05:00,1774899602.768516,30.28870058160175,-97.73751231816502,173.8429,0.158708,0.3709396,-1,-1,3,11.25481631964706,-9999,135333.52426275,1.317138671875,0.4209136962890625,0.0657958984375,135333.50918475,2.174072513298939,2.303773390118005,0.04922155602822765,2.452350616455078,3.060274839401245,1.120833992958069,0.9119806885719299,0.7212902307510376,-0.7689827680587769,XArbitraryZVertical,0.8038066615599295,-0.4336268049731754,-0.3704361806628402,-0.1692325063094023,0.7422856688499451,-0.04920168220996857,0.6682747006416321,0,0,0,-1,-1,135333.162397125,walking,2,2026-03-30T14:40:02.529-05:00,2026-03-30T10:54:16.334-05:00,3789,1.345529,0,0,2555.308,4,4,2026-03-30T14:39:52.236-05:00,796592402.5927455,0,-0.3199997,99.60526,1,0.9,2026-03-30T14:37:50.703-05:00,72,1.2,2026-03-30T12:48:13.834-05:00,0.1236805929763694
2026-03-30T14:40:02.927-05:00,1774899602.768516,30.28870058160175,-97.73751231816502,173.8429,0.158708,0.3709396,-1,-1,3,11.25481631964706,-9999,135333.55818575,1.279815673828125,0.0885467529296875,0.9997711181640625,135333.53933975,2.095184896420139,2.393884952772581,0.01848411300499643,2.355300426483154,2.793314695358276,1.113245964050293,0.6883204579353333,0.3837325870990753,-0.4102025032043457,XArbitraryZVertical,0.804669132138962,-0.4680488263725041,-0.3206349062947206,-0.1750176013049113,0.6798436045646667,-0.01848306134343147,0.7331242561340332,0,0,0,-1,-1,135333.162397125,walking,2,2026-03-30T14:40:02.529-05:00,2026-03-30T10:54:16.334-05:00,3789,1.345529,0,0,2555.308,4,4,2026-03-30T14:39:52.236-05:00,796592402.5927455,0,-0.3199997,99.60526,1,0.9,2026-03-30T14:37:50.703-05:00,72,1.2,2026-03-30T12:48:13.834-05:00,0.1236805929763694
2026-03-30T14:40:02.961-05:00,1774899602.768516,30.28870058160175,-97.73751231816502,173.8429,0.158708,0.3709396,-1,-1,3,11.25481631964706,-9999,135333.59211075,0.95928955078125,0.29766845703125,1.141860961914062,135333.56949575,2.037716718334087,2.469920361081489,-0.001396516177611665,1.319436073303223,2.294490098953247,0.9694570302963257,0.6104164719581604,0.1660991162061691,0.3210546970367432,XArbitraryZVertical,0.8040608973475827,-0.4948502166006173,-0.2802767953962129,-0.173361608842828,0.6222952604293823,0.001396515755914152,0.7827813029289246,0,0,0,-1,-1,135333.162397125,walking,2,2026-03-30T14:40:02.529-05:00,2026-03-30T10:54:16.334-05:00,3789,1.345529,0,0,2555.308,4,4,2026-03-30T14:39:52.236-05:00,796592402.5927455,0,-0.3199997,99.60526,1,0.9,2026-03-30T14:37:50.703-05:00,72,1.2,2026-03-30T12:48:13.834-05:00,0.1236805929763694
2026-03-30T14:40:02.997-05:00,1774899602.768516,30.28870058160175,-97.73751231816502,173.8429,0.158708,0.3709396,-1,-1,3,11.25481631964706,-9999,135333.62603675,0.5223388671875,0.3758087158203125,1.3680419921875,135333.59965075,1.991301576902572,2.530641115665228,-0.0147458208361656,1.063971161842346,1.559182286262512,0.9993675351142883,0.3643119335174561,0.2655738294124603,0.3448659181594849,XArbitraryZVertical,0.8014499361197277,-0.516899144729058,-0.248529015525364,-0.1694891629173211,0.5735847353935242,0.01474528666585684,0.8190134763717651,0,0,0,-1,-1,135333.162397125,walking,2,2026-03-30T14:40:02.529-05:00,2026-03-30T10:54:16.334-05:00,3789,1.345529,0,0,2555.308,4,4,2026-03-30T14:39:52.236-05:00,796592402.5927455,0,-0.3199997,99.60526,1,0.9,2026-03-30T14:37:50.703-05:00,72,1.2,2026-03-30T12:48:13.834-05:00,0.1236805929763694
2026-03-30T14:40:03.032-05:00,1774899602.768516,30.28870058160175,-97.73751231816502,173.8429,0.158708,0.3709396,-1,-1,3,11.25481631964706,-9999,135333.65996175,0.4774932861328125,0.30560302734375,1.162567138671875,135333.62980675,1.94328946345689,2.553478640965464,-0.02574778395746954,1.783209919929504,-0.0894896388053894,1.31770920753479,-0.009534597396850586,0.3235896825790405,0.5531902313232422,XArbitraryZVertical,0.7924057139845575,-0.5366093020899846,-0.2323838016853819,-0.173612805641219,0.5546090006828308,0.02574493922293186,0.8317127227783203,0,0,0,-1,-1,135333.162397125,walking,2,2026-03-30T14:40:02.529-05:00,2026-03-30T10:54:16.334-05:00,3789,1.345529,0,0,2555.308,4,4,2026-03-30T14:39:52.236-05:00,796592402.5927455,0,-0.3199997,99.60526,1,0.9,2026-03-30T14:37:50.703-05:00,72,1.2,2026-03-30T12:48:13.834-05:00,0.1236805929763694
2026-03-30T14:40:03.062-05:00,1774899602.768516,30.28870058160175,-97.73751231816502,173.8429,0.158708,0.3709396,-1,-1,3,11.25481631964706,-9999,135333.69388575,0.3429412841796875,-0.0559539794921875,1.157867431640625,135333.69011775,1.816232437275414,2.438598232298278,-0.0478173081355334,0.4600340127944946,-3.266920566558838,1.641520500183105,-0.319884181022644,-0.1069422364234924,0.4501968622207642,XArbitraryZVertical,0.7449978050992194,-0.5709615950841538,-0.2575443777523272,-0.2294603977303075,0.6457661390304565,0.04779908806085587,0.7620377540588379,0,0,0,-1,-1,135333.162397125,walking,2,2026-03-30T14:40:02.529-05:00,2026-03-30T10:54:16.334-05:00,3789,1.345529,0,0,2555.308,4,4,2026-03-30T14:39:52.236-05:00,796592402.5927455,0,-0.3199997,99.60526,1,0.9,2026-03-30T14:37:50.703-05:00,72,1.2,2026-03-30T12:48:13.834-05:00,0.1236805929763694
2026-03-30T14:40:03.097-05:00,1774899602.768516,30.28870058160175,-97.73751231816502,173.8429,0.158708,0.3709396,-1,-1,3,11.25481631964706,-9999,135333.72781075,0.2370452880859375,0.1707916259765625,0.9530487060546875,135333.72027275,1.77448604388615,2.322442826477051,-0.02729559690037432,0.5301324725151062,-4.242516994476318,1.376058459281921,-0.5044785737991333,0.04891008883714676,0.3175186514854431,XArbitraryZVertical,0.7145718609398506,-0.5750487844366724,-0.3008179488828626,-0.2611789098372648,0.730293333530426,0.02729220688343048,0.6825881004333496,0,0,0,-1,-1,135333.162397125,walking,2,2026-03-30T14:40:02.529-05:00,2026-03-30T10:54:16.334-05:00,3789,1.345529,0,0,2555.308,4,4,2026-03-30T14:39:52.236-05:00,796592402.5927455,0,-0.3199997,99.60526,1,0.9,2026-03-30T14:37:50.703-05:00,72,1.2,2026-03-30T12:48:13.834-05:00,0.1236805929763694
2026-03-30T14:40:03.132-05:00,1774899602.768516,30.28870058160175,-97.73751231816502,173.8429,0.158708,0.3709396,-1,-1,3,11.25481631964706,-9999,135333.76173675,0.2209625244140625,0.30841064453125,0.7975311279296875,135333.75042875,1.730503364859208,2.182024335433495,-0.01502441855781846,1.420207023620605,-4.933474540710449,0.9950664043426514,-0.5766487717628479,0.252249002456665,0.3039835691452026,XArbitraryZVertical,0.6775377218714207,-0.5725792867530649,-0.3470564111918001,-0.3043804534896942,0.8188515305519104,0.0150238536298275,0.5738087892532349,0,0,0,-1,-1,135333.162397125,walking,2,2026-03-30T14:40:02.529-05:00,2026-03-30T10:54:16.334-05:00,3789,1.345529,0,0,2555.308,4,4,2026-03-30T14:39:52.236-05:00,796592402.5927455,0,-0.3199997,99.60526,1,0.9,2026-03-30T14:37:50.703-05:00,72,1.2,2026-03-30T12:48:13.834-05:00,0.1236805929763694
2026-03-30T14:40:03.168-05:00,1774899602.768516,30.28870058160175,-97.73751231816502,173.8429,0.158708,0.3709396,-1,-1,3,11.25481631964706,-9999,135333.79566175,0.43707275390625,0.02099609375,0.7540435791015625,135333.78058375,1.66693575045474,2.027129057188128,-0.02413056342951201,2.273247241973877,-5.213266372680664,0.7697547078132629,-0.5882854461669922,0.1929127275943756,0.3379726111888885,XArbitraryZVertical,0.6325252982683849,-0.5658419533116646,-0.3845691972484906,-0.3630993056381749,0.8974131345748901,0.02412822097539902,0.4405307471752167,0,0,0,-1,-1,135333.162397125,walking,2,2026-03-30T14:40:02.529-05:00,2026-03-30T10:54:16.334-05:00,3789,1.345529,0,0,2555.308,4,4,2026-03-30T14:39:52.236-05:00,796592402.5927455,0,-0.3199997,99.60526,1,0.9,2026-03-30T14:37:50.703-05:00,72,1.2,2026-03-30T12:48:13.834-05:00,0.1236805929763694
2026-03-30T14:40:03.198-05:00,1774899602.768516,30.28870058160175,-97.73751231816502,173.8429,0.158708,0.3709396,-1,-1,3,11.25481631964706,-9999,135333.82958475,0.559478759765625,-0.2073974609375,0.7264404296875,135333.81073975,1.595366205248908,1.86263151429801,-0.03145650647015071,1.797268152236938,-5.496312141418457,0.3968039453029633,-0.4407031536102295,-0.02617185562849045,0.4173728823661804,XArbitraryZVertical,0.580797677797128,-0.5535865487111177,-0.4182722625229032,-0.425751629467426,0.9572438597679138,0.03145131841301918,0.2875680327415466,0,0,0,-1,-1,135333.162397125,walking,2,2026-03-30T14:40:02.529-05:00,2026-03-30T10:54:16.334-05:00,3789,1.345529,0,0,2555.308,4,4,2026-03-30T14:39:52.236-05:00,796592402.5927455,0,-0.3199997,99.60526,1,0.9,2026-03-30T14:37:50.703-05:00,72,1.2,2026-03-30T12:48:13.834-05:00,0.1236805929763694
2026-03-30T14:40:03.233-05:00,1774899602.768516,30.28870058160175,-97.73751231816502,173.8429,0.158708,0.3709396,-1,-1,3,11.25481631964706,-9999,135333.86351075,0.787567138671875,0.46112060546875,0.184814453125,135333.84089475,1.573757213597948,1.707156891143919,-0.02994487262370823,0.6600152850151062,-4.713211536407471,0.04540921002626419,-0.4153372645378113,-0.2668331563472748,0.5417196750640869,XArbitraryZVertical,0.5405788222504476,-0.5250840393443557,-0.4574432362831521,-0.4720243016718673,0.990273118019104,0.02994039840996265,0.1358774155378342,0,0,0,-1,-1,135333.162397125,walking,2,2026-03-30T14:40:02.529-05:00,2026-03-30T10:54:16.334-05:00,3789,1.345529,0,0,2555.308,4,4,2026-03-30T14:39:52.236-05:00,796592402.5927455,0,-0.3199997,99.60526,1,0.9,2026-03-30T14:37:50.703-05:00,72,1.2,2026-03-30T12:48:13.834-05:00,0.1236805929763694
2026-03-30T14:40:03.268-05:00,1774899602.768516,30.28870058160175,-97.73751231816502,173.8429,0.158708,0.3709396,-1,-1,3,11.25481631964706,-9999,135333.89743575,0.8020477294921875,-0.1248779296875,0.3568572998046875,135333.87105075,1.501535459018422,1.571347641985013,-0.03776491614065013,3.699996948242188,-4.011153697967529,-0.1581985950469971,-0.1844674944877625,0.4462527632713318,0.1659988164901733,XArbitraryZVertical,0.4921945923730079,-0.5079566362000671,-0.472404915116084,-0.5258879022296029,0.9992867708206177,0.03775594010949135,0.000550922064576298,0,0,0,-1,-1,135333.162397125,walking,2,2026-03-30T14:40:02.529-05:00,2026-03-30T10:54:16.334-05:00,3789,1.345529,0,0,2555.308,4,4,2026-03-30T14:39:52.236-05:00,796592402.5927455,0,-0.3199997,99.60526,1,0.9,2026-03-30T14:37:50.703-05:00,72,1.2,2026-03-30T12:48:13.834-05:00,0.1236805929763694
2026-03-30T14:40:03.303-05:00,1774899602.768516,30.28870058160175,-97.73751231816502,173.8429,0.158708,0.3709396,-1,-1,3,11.25481631964706,-9999,135333.93136175,0.441925048828125,0.1172943115234375,-0.294769287109375,135333.90120575,1.404961156983286,1.466041158543786,-0.03147306462875648,2.408304691314697,-2.614391565322876,0.2725545465946198,-0.182258129119873,-0.1606488525867462,0.463917464017868,XArbitraryZVertical,0.4411974917482847,-0.5030793497643459,-0.4720673796637614,-0.5739408985883679,0.9940255284309387,0.03146786987781525,-0.1045118793845177,0,0,0,-1,-1,135333.162397125,walking,2,2026-03-30T14:40:02.529-05:00,2026-03-30T10:54:16.334-05:00,3789,1.345529,0,0,2555.308,4,4,2026-03-30T14:39:52.236-05:00,796592402.5927455,0,-0.3199997,99.60526,1,0.9,2026-03-30T14:37:50.703-05:00,72,1.2,2026-03-30T12:48:13.834-05:00,0.1236805929763694
2026-03-30T14:40:03.333-05:00,1774899602.768516,30.28870058160175,-97.73751231816502,173.8429,0.158708,0.3709396,-1,-1,3,11.25481631964706,-9999,135333.96528475,0.5467987060546875,-0.0420989990234375,-0.1454620361328125,135333.93136175,1.344497243618919,1.420474312255182,-0.01481762490460991,1.705223321914673,-0.3587577939033508,0.2264705151319504,-0.5506871342658997,0.1204978078603745,-0.07407580316066742,XArbitraryZVertical,0.4104235174566637,-0.5066384333296917,-0.4683786994634166,-0.5962309210671406,0.9886142611503601,0.01481708232313395,-0.149740070104599,0,0,0,-1,-1,135333.162397125,walking,2,2026-03-30T14:40:02.529-05:00,2026-03-30T10:54:16.334-05:00,3789,1.345529,0,0,2555.308,4,4,2026-03-30T14:39:52.236-05:00,796592402.5927455,0,-0.3199997,99.60526,1,0.9,2026-03-30T14:37:50.703-05:00,72,1.2,2026-03-30T12:48:13.834-05:00,0.1236805929763694
2026-03-30T14:40:03.369-05:00,1774899602.768516,30.28870058160175,-97.73751231816502,173.8429,0.158708,0.3709396,-1,-1,3,11.25481631964706,-9999,135333.99921075,3.085311889648438,0.0486297607421875,-0.7620849609375,135333.99167275,1.349492946815497,1.496799201954985,-0.01851567088230904,-1.870548129081726,1.292506337165833,0.03721366450190544,1.034798383712769,0.8483676314353943,-0.3746761679649353,XArbitraryZVertical,0.430366298426525,-0.5270923818556635,-0.4528277396965042,-0.5761123937126921,0.9970924854278564,0.0185146126896143,-0.07391694188117981,0,0,0,-1,-1,135333.162397125,walking,2,2026-03-30T14:40:02.529-05:00,2026-03-30T10:54:16.334-05:00,3789,1.345529,0,0,2555.308,4,4,2026-03-30T14:39:52.236-05:00,796592402.5927455,0,-0.3199997,99.60526,1,0.9,2026-03-30T14:37:50.703-05:00,72,1.2,2026-03-30T12:48:13.834-05:00,0.1236805929763694
2026-03-30T14:40:03.404-05:00,1774899602.768516,30.28870058160175,-97.73751231816502,173.8429,0.158708,0.3709396,-1,-1,3,11.25481631964706,-9999,135334.03313575,0.224456787109375,-0.2316131591796875,0.72308349609375,135334.02182775,1.415888542607282,1.555349075359261,-0.005790317832838732,-1.63837456703186,2.053707599639893,0.2962831258773804,-0.02713143825531006,-0.0750499814748764,-0.2060501575469971,XArbitraryZVertical,0.4578129267597692,-0.5316804818367991,-0.4618052848112401,-0.5426408573473587,0.9998639822006226,0.005790285300463438,-0.01544637884944677,0,0,0,-1,-1,135333.162397125,walking,2,2026-03-30T14:40:02.529-05:00,2026-03-30T10:54:16.334-05:00,3789,1.345529,0,0,2555.308,4,4,2026-03-30T14:39:52.236-05:00,796592402.5927455,0,-0.3199997,99.60526,1,0.9,2026-03-30T14:37:50.703-05:00,72,1.2,2026-03-30T12:48:13.834-05:00,0.1236805929763694
2026-03-30T14:40:03.439-05:00,1774899602.768516,30.28870058160175,-97.73751231816502,173.8429,0.158708,0.3709396,-1,-1,3,11.25481631964706,-9999,135334.06706075,1.338668823242188,0.0313262939453125,0.8464202880859375,135334.05198375,1.425269015306589,1.606493088623352,-0.0003668346839159954,0.8129839897155762,1.674031853675842,0.1953761726617813,-0.6367835998535156,0.1837456524372101,0.4851391315460205,XArbitraryZVertical,0.4706012475584016,-0.5444070701642778,-0.4539023764372378,-0.5254790154459913,0.9993630051612854,0.0003668346616905183,0.03568918630480766,0,0,0,-1,-1,135333.162397125,walking,2,2026-03-30T14:40:02.529-05:00,2026-03-30T10:54:16.334-05:00,3789,1.345529,0,0,2555.308,4,4,2026-03-30T14:39:52.236-05:00,796592402.5927455,0,-0.3199997,99.60526,1,0.9,2026-03-30T14:37:50.703-05:00,72,1.2,2026-03-30T12:48:13.834-05:00,0.1236805929763694
2026-03-30T14:40:03.469-05:00,1774899602.768516,30.28870058160175,-97.73751231816502,173.8429,0.158708,0.3709396,-1,-1,3,11.25481631964706,-9999,135334.10098475,0.7562255859375,0.086883544921875,0.848297119140625,135334.08213875,1.410666407931497,1.649997723439217,0.00215424232147195,-0.6064360737800598,1.397970676422119,-0.05847952887415886,0.2765745520591736,0.1749141812324524,0.8325332403182983,XArbitraryZVertical,0.4756409196427139,-0.5597543512036645,-0.4405027444053019,-0.5161376942816572,0.9968628883361816,-0.002154240617528558,0.07911843806505203,0,0,0,-1,-1,135333.162397125,walking,2,2026-03-30T14:40:02.529-05:00,2026-03-30T10:54:16.334-05:00,3789,1.345529,0,0,2555.308,4,4,2026-03-30T14:39:52.236-05:00,796592402.5927455,0,-0.3199997,99.60526,1,0.9,2026-03-30T14:37:50.703-05:00,72,1.2,2026-03-30T12:48:13.834-05:00,0.1236805929763694
2026-03-30T14:40:03.504-05:00,1774899602.768516,30.28870058160175,-97.73751231816502,173.8429,0.158708,0.3709396,-1,-1,3,11.25481631964706,-9999,135334.13490975,0.89508056640625,0.1825714111328125,0.3779296875,135334.11229475,1.427451883006039,1.690104347168893,0.008371539322852712,0.5749154090881348,1.194137692451477,0.4037794172763824,-0.08236449956893921,0.2811985313892365,0.5980658531188965,XArbitraryZVertical,0.487581311318466,-0.5672521141545683,-0.4368523188278003,-0.4996493405370268,0.9928563237190247,-0.008371441625058651,0.1190209910273552,0,0,0,-1,-1,135333.162397125,walking,2,2026-03-30T14:40:02.529-05:00,2026-03-30T10:54:16.334-05:00,3789,1.345529,0,0,2555.308,4,4,2026-03-30T14:39:52.236-05:00,796592402.5927455,0,-0.3199997,99.60526,1,0.9,2026-03-30T14:37:50.703-05:00,72,1.2,2026-03-30T12:48:13.834-05:00,0.1236805929763694
2026-03-30T14:40:03.540-05:00,1774899602.768516,30.28870058160175,-97.73751231816502,173.8429,0.158708,0.3709396,-1,-1,3,11.25481631964706,-9999,135334.16883575,1.104476928710938,-0.442138671875,0.4535369873046875,135334.14244975,1.383446538393734,1.722457457919234,0.01353808446621947,1.314889073371887,0.913841724395752,0.3103114664554596,-0.09489142894744873,0.08871765434741974,0.2420609146356583,XArbitraryZVertical,0.4805049831461823,-0.5870674972073647,-0.419518334010745,-0.4984688011940819,0.9884309768676758,-0.01353767048567533,0.1510665714740753,0,0,0,-1,-1,135333.162397125,walking,2,2026-03-30T14:40:02.529-05:00,2026-03-30T10:54:16.334-05:00,3789,1.345529,0,0,2555.308,4,4,2026-03-30T14:39:52.236-05:00,796592402.5927455,0,-0.3199997,99.60526,1,0.9,2026-03-30T14:37:50.703-05:00,72,1.2,2026-03-30T12:48:13.834-05:00,0.1236805929763694
2026-03-30T14:40:03.574-05:00,1774899602.768516,30.28870058160175,-97.73751231816502,173.8429,0.158708,0.3709396,-1,-1,3,11.25481631964706,-9999,135334.20276075,1.023406982421875,-0.050811767578125,0.3227386474609375,135334.17260575,1.367345486921496,1.747450377701627,0.01631041046886907,0.1650551557540894,0.7352997064590454,0.09199324995279312,0.118019163608551,-0.4428120851516724,0.2861397266387939,XArbitraryZVertical,0.4802232805013012,-0.5976974669898355,-0.4103339336884132,-0.4937301433747703,0.9843063354492188,-0.01630968786776066,0.1757133156061172,0,0,0,-1,-1,135333.162397125,walking,2,2026-03-30T14:40:02.529-05:00,2026-03-30T10:54:16.334-05:00,3789,1.345529,0,0,2555.308,4,4,2026-03-30T14:39:52.236-05:00,796592402.5927455,0,-0.3199997,99.60526,1,0.9,2026-03-30T14:37:50.703-05:00,72,1.2,2026-03-30T12:48:13.834-05:00,0.1236805929763694
2026-03-30T14:40:03.605-05:00,1774899602.768516,30.28870058160175,-97.73751231816502,173.8429,0.158708,0.3709396,-1,-1,3,11.25481631964706,-9999,135334.23668475,0.988128662109375,-0.00177001953125,0.3227386474609375,135334.20276075,1.351441481388092,1.76782700787298,0.0154916012564749,0.7460066080093384,0.6081161499023438,0.07374779134988785,0.04755687713623047,-0.03275737166404724,0.1238911002874374,XArbitraryZVertical,0.4797751435046468,-0.6063688869346386,-0.4012840434726106,-0.4910230785426708,0.9805344343185425,-0.01549098175019026,0.195734828710556,0,0,0,-1,-1,135333.162397125,walking,2,2026-03-30T14:40:02.529-05:00,2026-03-30T10:54:16.334-05:00,3789,1.345529,0,0,2555.308,4,4,2026-03-30T14:39:52.236-05:00,796592402.5927455,0,-0.3199997,99.60526,1,0.9,2026-03-30T14:37:50.703-05:00,72,1.2,2026-03-30T12:48:13.834-05:00,0.1236805929763694
2026-03-30T14:40:03.640-05:00,1774899602.768516,30.28870058160175,-97.73751231816502,173.8429,0.158708,0.3709396,-1,-1,3,11.25481631964706,-9999,135334.270609375,0.976165771484375,-0.0895233154296875,0.2092437744140625,135334.263071375,1.311087384147125,1.800181073836164,0.007288565092574753,0.6724613904953003,0.4476516842842102,-0.02987598814070225,0.005482673645019531,0.05672692880034447,0.01109205186367035,XArbitraryZVertical,0.4757441024416973,-0.6223774879582877,-0.3811447635496356,-0.4909607265908446,0.9737805724143982,-0.007288500666618347,0.2273723781108856,0,0,0,-1,-1,135333.162397125,walking,2,2026-03-30T14:40:02.529-05:00,2026-03-30T10:54:16.334-05:00,3789,1.345529,0,0,2555.308,4,4,2026-03-30T14:39:52.236-05:00,796592402.5927455,0,-0.3199997,99.60526,1,0.9,2026-03-30T14:37:50.703-05:00,72,1.2,2026-03-30T12:48:13.834-05:00,0.1236805929763694
2026-03-30T14:40:03.675-05:00,1774899602.768516,30.28870058160175,-97.73751231816502,173.8429,0.158708,0.3709396,-1,-1,3,11.25481631964706,-9999,135334.304535375,0.9353485107421875,0.08514404296875,0.13250732421875,135334.293227375,1.297194720399499,1.81426919898222,0.003304584977941276,0.4725739359855652,0.4813920855522156,-0.0009349868632853031,0.03493070602416992,-0.09603019058704376,-0.0569148063659668,XArbitraryZVertical,0.4750387948294916,-0.6283906079751562,-0.3731467032685027,-0.490127536494505,0.9705014228820801,-0.003304579062387347,0.2410732209682465,0,0,0,-1,-1,135333.162397125,walking,2,2026-03-30T14:40:02.529-05:00,2026-03-30T10:54:16.334-05:00,3789,1.345529,0,0,2555.308,4,4,2026-03-30T14:39:52.236-05:00,796592402.5927455,0,-0.3199997,99.60526,1,0.9,2026-03-30T14:37:50.703-05:00,72,1.2,2026-03-30T12:48:13.834-05:00,0.1236805929763694
2026-03-30T14:40:03.710-05:00,1774899602.768516,30.28870058160175,-97.73751231816502,173.8429,0.158708,0.3709396,-1,-1,3,11.25481631964706,-9999,135334.338460375,0.89276123046875,0.1009521484375,0.128753662109375,135334.323382375,1.282021961943171,1.829415998200785,0.0002623802028914923,0.4185411036014557,0.535506010055542,0.04219541698694229,-0.06855052709579468,0.1251097470521927,-0.121087521314621,XArbitraryZVertical,0.4737865497895751,-0.6351373848248943,-0.3648801537338788,-0.4888653690569522,0.9667439460754395,-0.0002623801992740482,0.2557463943958282,0,0,0,-1,-1,135333.162397125,walking,2,2026-03-30T14:40:02.529-05:00,2026-03-30T10:54:16.334-05:00,3789,1.345529,0,0,2555.308,4,4,2026-03-30T14:39:52.236-05:00,796592402.5927455,0,-0.3199997,99.60526,1,0.9,2026-03-30T14:37:50.703-05:00,72,1.2,2026-03-30T12:48:13.834-05:00,0.1236805929763694
2026-03-30T14:40:03.741-05:00,1774899602.768516,30.28870058160175,-97.73751231816502,173.8429,0.158708,0.3709396,-1,-1,3,11.25481631964706,-9999,135334.372383375,0.9158782958984375,0.1447296142578125,0.048828125,135334.353538375,1.271247764015605,1.848994531936824,-0.0004525597285803349,0.4384433031082153,0.7921450138092041,0.1375483125448227,-0.06785976886749268,0.1396688371896744,-0.1612202227115631,XArbitraryZVertical,0.4740548773173814,-0.6423268200843495,-0.357389898334559,-0.4847274182356505,0.9615516662597656,0.0004525597032625228,0.2746235430240631,0,0,0,-1,-1,135333.162397125,walking,2,2026-03-30T14:40:02.529-05:00,2026-03-30T10:54:16.334-05:00,3789,1.345529,0,0,2555.308,4,4,2026-03-30T14:39:52.236-05:00,796592402.5927455,0,-0.3199997,99.60526,1,0.9,2026-03-30T14:37:50.703-05:00,72,1.2,2026-03-30T12:48:13.834-05:00,0.1236805929763694
2026-03-30T14:40:03.775-05:00,1774899602.768516,30.28870058160175,-97.73751231816502,173.8429,0.158708,0.3709396,-1,-1,3,11.25481631964706,-9999,135334.406309375,0.960662841796875,0.2380828857421875,-0.0095367431640625,135334.383693375,1.255605755489174,1.876650490164975,0.0008162407841717116,0.4618076086044312,0.993168830871582,0.2494305074214935,0.006538987159729004,0.1152876242995262,-0.2560942471027374,XArbitraryZVertical,0.4735576822997529,-0.6529142012693906,-0.3474828834802784,-0.4782276741362059,0.9535896778106689,-0.0008162406738847494,0.3011076748371124,0,0,0,-1,-1,135333.162397125,walking,2,2026-03-30T14:40:02.529-05:00,2026-03-30T10:54:16.334-05:00,3789,1.345529,0,0,2555.308,4,4,2026-03-30T14:39:52.236-05:00,796592402.5927455,0,-0.3199997,99.60526,1,0.9,2026-03-30T14:37:50.703-05:00,72,1.2,2026-03-30T12:48:13.834-05:00,0.1236805929763694
