loggingTime(txt),locationTimestamp_since1970(s),locationLatitude(WGS84),locationLongitude(WGS84),locationAltitude(m),locationSpeed(m/s),locationSpeedAccuracy(m/s),locationCourse(°),locationCourseAccuracy(°),locationVerticalAccuracy(m),locationHorizontalAccuracy(m),locationFloor(Z),accelerometerTimestamp_sinceReboot(s),accelerometerAccelerationX(G),accelerometerAccelerationY(G),accelerometerAccelerationZ(G),motionTimestamp_sinceReboot(s),motionYaw(rad),motionRoll(rad),motionPitch(rad),motionRotationRateX(rad/s),motionRotationRateY(rad/s),motionRotationRateZ(rad/s),motionUserAccelerationX(G),motionUserAccelerationY(G),motionUserAccelerationZ(G),motionAttitudeReferenceFrame(txt),motionQuaternionX(R),motionQuaternionY(R),motionQuaternionZ(R),motionQuaternionW(R),motionGravityX(G),motionGravityY(G),motionGravityZ(G),motionMagneticFieldX(µT),motionMagneticFieldY(µT),motionMagneticFieldZ(µT),motionHeading(°),motionMagneticFieldCalibrationAccuracy(Z),activityTimestamp_sinceReboot(s),activity(txt),activityActivityConfidence(Z),activityActivityStartDate(txt),pedometerStartDate(txt),pedometerNumberofSteps(N),pedometerAverageActivePace(s/m),pedometerCurrentPace(s/m),pedometerCurrentCadence(steps/s),pedometerDistance(m),pedometerFloorAscended(N),pedometerFloorDescended(N),pedometerEndDate(txt),altimeterTimestamp_sinceReboot(s),altimeterReset(bool),altimeterRelativeAltitude(m),altimeterPressure(kPa),batteryState(N),batteryLevel(R),heartRateBPMTimestamp(txt),heartRateBPM(N),heartRateBPS(R),heartRateVariabilityTimestamp(txt),heartRateVariability(ms)
2026-03-30T14:38:29.183-05:00,1774899503.220146,30.28882894480654,-97.73768801346797,181.1905,-1,-1,-1,-1,62.87283999505373,22.98179575223341,-9999,135245.991349375,0.8238067626953125,0.291900634765625,-0.4836578369140625,135245.959938375,-3.081825577906256,1.040027285897215,-0.2951794097978702,-0.003377498593181372,0.001956025371327996,-0.002288912888616323,-0.002212047576904297,-0.002627253532409668,0.0004321932792663574,XArbitraryZVertical,-0.4874574697603928,-0.1422439860966281,0.8601779773168132,0.04738999758592431,0.8251184821128845,0.2909114956855774,-0.4843037128448486,0,0,0,-1,-1,135233.8374975417,unknown,2,2026-03-30T14:38:17.026-05:00,2026-03-30T10:54:16.334-05:00,3730,1.346119,0,0,2516.999,4,4,2026-03-30T14:36:34.095-05:00,796592307.3808063,0,0.02000046,99.60115,1,0.9,2026-03-30T14:37:50.703-05:00,72,1.2,2026-03-30T12:48:13.834-05:00,0.1236805929763694
2026-03-30T14:38:29.218-05:00,1774899503.220146,30.28882894480654,-97.73768801346797,181.1905,-1,-1,-1,-1,62.87283999505373,22.98179575223341,-9999,135246.025274375,0.8252716064453125,0.2909698486328125,-0.4804534912109375,135246.020249375,-3.082009810165056,1.040167169858489,-0.2951426495552965,0.00628320686519146,0.0009956182911992073,-0.0002743667573668063,-0.003006160259246826,-0.001264572143554688,0.002687275409698486,XArbitraryZVertical,-0.4875325434996352,-0.1421800327700385,0.8601415900657923,0.04747007790296481,0.8251954317092896,0.2908763289451599,-0.4841937124729156,0,0,0,-1,-1,135233.8374975417,unknown,2,2026-03-30T14:38:17.026-05:00,2026-03-30T10:54:16.334-05:00,3730,1.346119,0,0,2516.999,4,4,2026-03-30T14:36:34.095-05:00,796592307.3808063,0,0.02000046,99.60115,1,0.9,2026-03-30T14:37:50.703-05:00,72,1.2,2026-03-30T12:48:13.834-05:00,0.1236805929763694
2026-03-30T14:38:29.248-05:00,1774899503.220146,30.28882894480654,-97.73768801346797,181.1905,-1,-1,-1,-1,62.87283999505373,22.98179575223341,-9999,135246.059198375,0.82281494140625,0.2851715087890625,-0.47802734375,135246.050404375,-3.081970473619557,1.040168093925719,-0.2951612980001917,-0.01055731438100338,-0.002686523366719484,-0.002231705468147993,-0.004268407821655273,-0.006119459867477417,0.005857586860656738,XArbitraryZVertical,-0.4875292265103618,-0.1421975795663675,0.860141237051479,0.04745784468795002,0.8251911997795105,0.2908941805362701,-0.4841901957988739,0,0,0,-1,-1,135233.8374975417,unknown,2,2026-03-30T14:38:17.026-05:00,2026-03-30T10:54:16.334-05:00,3730,1.346119,0,0,2516.999,4,4,2026-03-30T14:36:34.095-05:00,796592307.3808063,0,0.02000046,99.60115,1,0.9,2026-03-30T14:37:50.703-05:00,72,1.2,2026-03-30T12:48:13.834-05:00,0.1236805929763694
2026-03-30T14:38:29.284-05:00,1774899503.220146,30.28882894480654,-97.73768801346797,181.1905,-1,-1,-1,-1,62.87283999505373,22.98179575223341,-9999,135246.093123375,0.8228302001953125,0.291656494140625,-0.4816131591796875,135246.080559375,-3.081769340798194,1.040140539938945,-0.2953640502234949,-0.002904587890952826,-0.003633796237409115,-0.002949262736365199,-0.004021048545837402,-0.001140743494033813,0.002539306879043579,XArbitraryZVertical,-0.4874930778059253,-0.1423340179577269,0.8601412083350898,0.04741959281231364,0.8251269459724426,0.2910881638526917,-0.4841830432415009,0,0,0,-1,-1,135233.8374975417,unknown,2,2026-03-30T14:38:17.026-05:00,2026-03-30T10:54:16.334-05:00,3730,1.346119,0,0,2516.999,4,4,2026-03-30T14:36:34.095-05:00,796592307.3808063,0,0.02000046,99.60115,1,0.9,2026-03-30T14:37:50.703-05:00,72,1.2,2026-03-30T12:48:13.834-05:00,0.1236805929763694
2026-03-30T14:38:29.319-05:00,1774899503.220146,30.28882894480654,-97.73768801346797,181.1905,-1,-1,-1,-1,62.87283999505373,22.98179575223341,-9999,135246.127049375,0.82305908203125,0.2905731201171875,-0.48291015625,135246.110715375,-3.081912517819323,1.040122986668826,-0.2953074679563309,0.009546289220452309,0.001299263443797827,0.0001869647821877152,-0.004423439502716064,0.002773851156234741,0.002241700887680054,XArbitraryZVertical,-0.4874985200141359,-0.1422753262527909,0.8601452305073972,0.04746592439271801,0.8251326084136963,0.2910340130329132,-0.4842058420181274,0,0,0,-1,-1,135233.8374975417,unknown,2,2026-03-30T14:38:17.026-05:00,2026-03-30T10:54:16.334-05:00,3730,1.346119,0,0,2516.999,4,4,2026-03-30T14:36:34.095-05:00,796592307.3808063,0,0.02000046,99.60115,1,0.9,2026-03-30T14:37:50.703-05:00,72,1.2,2026-03-30T12:48:13.834-05:00,0.1236805929763694
2026-03-30T14:38:29.354-05:00,1774899503.220146,30.28882894480654,-97.73768801346797,181.1905,-1,-1,-1,-1,62.87283999505373,22.98179575223341,-9999,135246.160973875,0.824981689453125,0.2903594970703125,-0.48333740234375,135246.140870375,-3.082120100079671,1.040141573364093,-0.295109027918507,0.006650434341281652,0.0007987821009010077,-0.0005125716561451554,-0.0043601393699646,-0.001339226961135864,0.002667546272277832,XArbitraryZVertical,-0.4875310538669285,-0.1421393727273499,0.8601469977841484,0.04750739131106806,0.8251913785934448,0.2908441722393036,-0.4842197299003601,0,0,0,-1,-1,135233.8374975417,unknown,2,2026-03-30T14:38:17.026-05:00,2026-03-30T10:54:16.334-05:00,3730,1.346119,0,0,2516.999,4,4,2026-03-30T14:36:34.095-05:00,796592307.3808063,0,0.02000046,99.60115,1,0.9,2026-03-30T14:37:50.703-05:00,72,1.2,2026-03-30T12:48:13.834-05:00,0.1236805929763694
2026-03-30T14:38:29.387-05:00,1774899503.220146,30.28882894480654,-97.73768801346797,181.1905,-1,-1,-1,-1,62.87283999505373,22.98179575223341,-9999,135246.194896875,0.8241424560546875,0.288177490234375,-0.483642578125,135246.171025875,-3.082270753195178,1.040113521457561,-0.2950055222747214,0.00615235697478056,0.002285218564793468,-4.859830369241536e-05,-0.002755165100097656,-0.00128600001335144,0.001485228538513184,XArbitraryZVertical,-0.4875347995453873,-0.1420590258174192,0.860156056671778,0.04754457626740805,0.8252037763595581,0.2907451391220093,-0.4842581152915955,0,0,0,-1,-1,135233.8374975417,unknown,2,2026-03-30T14:38:17.026-05:00,2026-03-30T10:54:16.334-05:00,3730,1.346119,0,0,2516.999,4,4,2026-03-30T14:36:34.095-05:00,796592307.3808063,0,0.02000046,99.60115,1,0.9,2026-03-30T14:37:50.703-05:00,72,1.2,2026-03-30T12:48:13.834-05:00,0.1236805929763694
2026-03-30T14:38:29.419-05:00,1774899503.220146,30.28882894480654,-97.73768801346797,181.1905,-1,-1,-1,-1,62.87283999505373,22.98179575223341,-9999,135246.228822875,0.82061767578125,0.2855224609375,-0.481689453125,135246.201180875,-3.082448546568634,1.04010214731224,-0.294944206661044,0.007405818440020084,0.002544415416195989,0.002661835867911577,-0.001803696155548096,-0.003027856349945068,3.87728214263916e-05,XArbitraryZVertical,-0.4875455432176718,-0.1419897165354119,0.8601580974842939,0.04760504762661306,0.825213611125946,0.2906864583492279,-0.4842765331268311,0,0,0,-1,-1,135233.8374975417,unknown,2,2026-03-30T14:38:17.026-05:00,2026-03-30T10:54:16.334-05:00,3730,1.346119,0,0,2516.999,4,4,2026-03-30T14:36:34.095-05:00,796592307.3808063,0,0.02000046,99.60115,1,0.9,2026-03-30T14:37:50.703-05:00,72,1.2,2026-03-30T12:48:13.834-05:00,0.1236805929763694
2026-03-30T14:38:29.455-05:00,1774899503.220146,30.28882894480654,-97.73768801346797,181.1905,-1,-1,-1,-1,62.87283999505373,22.98179575223341,-9999,135246.262747875,0.8250274658203125,0.287689208984375,-0.4792327880859375,135246.231336875,-3.082678250195085,1.040086844523153,-0.2947678379515853,0.007285398431122303,0.001608496299013495,0.00283836992457509,-0.003625750541687012,-0.00432392954826355,0.002534031867980957,XArbitraryZVertical,-0.4875639201634773,-0.14185860983849,0.8601663641059648,0.04765908421365637,0.8252504467964172,0.2905177175998688,-0.4843151271343231,0,0,0,-1,-1,135233.8374975417,unknown,2,2026-03-30T14:38:17.026-05:00,2026-03-30T10:54:16.334-05:00,3730,1.346119,0,0,2516.999,4,4,2026-03-30T14:36:34.095-05:00,796592307.3808063,0,0.02000046,99.60115,1,0.9,2026-03-30T14:37:50.703-05:00,72,1.2,2026-03-30T12:48:13.834-05:00,0.1236805929763694
2026-03-30T14:38:29.489-05:00,1774899503.220146,30.28882894480654,-97.73768801346797,181.1905,-1,-1,-1,-1,62.87283999505373,22.98179575223341,-9999,135246.296673875,0.8240814208984375,0.2883148193359375,-0.4811248779296875,135246.291647875,-3.082743895659471,1.039997855604596,-0.2945559003736888,0.002410060726106167,-0.004851602483540773,0.002908064052462578,-0.0009807348251342773,-0.001908630132675171,0.00353887677192688,XArbitraryZVertical,-0.4875407143650108,-0.1417540310285326,0.8601984093228455,0.04762855758830483,0.8252604007720947,0.2903149127960205,-0.4844197034835815,0,0,0,-1,-1,135233.8374975417,unknown,2,2026-03-30T14:38:17.026-05:00,2026-03-30T10:54:16.334-05:00,3730,1.346119,0,0,2516.999,4,4,2026-03-30T14:36:34.095-05:00,796592307.3808063,0,0.02000046,99.60115,1,0.9,2026-03-30T14:37:50.703-05:00,72,1.2,2026-03-30T12:48:13.834-05:00,0.1236805929763694
2026-03-30T14:38:29.520-05:00,1774899503.220146,30.28882894480654,-97.73768801346797,181.1905,-1,-1,-1,-1,62.87283999505373,22.98179575223341,-9999,135246.330596875,0.8239288330078125,0.28619384765625,-0.4813079833984375,135246.321802875,-3.082693926661044,1.040055231522556,-0.2945146401888057,-0.004490256309509277,0.0002655750140547752,-0.001745898509398103,-0.003094077110290527,-0.004127442836761475,0.002017498016357422,XArbitraryZVertical,-0.4875638531260905,-0.14174718533881,0.8601880478813803,0.04760089677811602,0.8252986073493958,0.2902754247188568,-0.484378457069397,0,0,0,-1,-1,135233.8374975417,unknown,2,2026-03-30T14:38:17.026-05:00,2026-03-30T10:54:16.334-05:00,3730,1.346119,0,0,2516.999,4,4,2026-03-30T14:36:34.095-05:00,796592307.3808063,0,0.02000046,99.60115,1,0.9,2026-03-30T14:37:50.703-05:00,72,1.2,2026-03-30T12:48:13.834-05:00,0.1236805929763694
2026-03-30T14:38:29.556-05:00,1774899509.49965,30.2887624397387,-97.73761320940574,173.204,-1,-1,-1,-1,30,37.04412986314287,-9999,135246.364522875,0.82275390625,0.287200927734375,-0.4853668212890625,135246.351958875,-3.082543370728578,1.040159188822479,-0.2946313430537556,-0.004502551164478064,-0.002111380454152822,-0.004267413169145584,-0.00491565465927124,-0.004864752292633057,-0.0002827346324920654,XArbitraryZVertical,-0.487592192287421,-0.1418313626400604,0.8601595419372068,0.04757243810602486,0.8253196477890015,0.2903870940208435,-0.4842754304409027,0,0,0,-1,-1,135233.8374975417,unknown,2,2026-03-30T14:38:17.026-05:00,2026-03-30T10:54:16.334-05:00,3730,1.346119,0,0,2516.999,4,4,2026-03-30T14:36:34.095-05:00,796592307.3808063,0,0.02000046,99.60115,1,0.9,2026-03-30T14:37:50.703-05:00,72,1.2,2026-03-30T12:48:13.834-05:00,0.1236805929763694
2026-03-30T14:38:29.590-05:00,1774899509.49965,30.2887624397387,-97.73761320940574,173.204,-1,-1,-1,-1,30,37.04412986314287,-9999,135246.398447875,0.82470703125,0.2906951904296875,-0.485321044921875,135246.382113875,-3.082511246787202,1.040172347746448,-0.2947112670781663,0.002563303569331765,-0.004695077426731586,-0.002671338384971023,-0.002491116523742676,-0.001462161540985107,0.002273380756378174,XArbitraryZVertical,-0.4875916097448998,-0.1418730765544448,0.8601527722384967,0.04757930263192595,0.8253061175346375,0.2904635667800903,-0.4842528998851776,0,0,0,-1,-1,135233.8374975417,unknown,2,2026-03-30T14:38:17.026-05:00,2026-03-30T10:54:16.334-05:00,3730,1.346119,0,0,2516.999,4,4,2026-03-30T14:36:34.095-05:00,796592307.3808063,0,0.02000046,99.60115,1,0.9,2026-03-30T14:37:50.703-05:00,72,1.2,2026-03-30T12:48:13.834-05:00,0.1236805929763694
2026-03-30T14:38:29.625-05:00,1774899509.49965,30.2887624397387,-97.73761320940574,173.204,-1,-1,-1,-1,30,37.04412986314287,-9999,135246.432372875,0.823760986328125,0.2911376953125,-0.4828643798828125,135246.412269875,-3.082885704876663,1.040094094898286,-0.2946212682729741,0.01646092161536217,0.001922496128827333,-0.009108405560255051,-0.006839752197265625,0.001599431037902832,0.000474393367767334,XArbitraryZVertical,-0.4875889224743737,-0.1417451360226842,0.860168016332916,0.0477125205818167,0.8252907395362854,0.2903774678707123,-0.4843307137489319,0,0,0,-1,-1,135233.8374975417,unknown,2,2026-03-30T14:38:17.026-05:00,2026-03-30T10:54:16.334-05:00,3730,1.346119,0,0,2516.999,4,4,2026-03-30T14:36:34.095-05:00,796592307.3808063,0,0.02000046,99.60115,1,0.9,2026-03-30T14:37:50.703-05:00,72,1.2,2026-03-30T12:48:13.834-05:00,0.1236805929763694
2026-03-30T14:38:29.656-05:00,1774899509.49965,30.2887624397387,-97.73761320940574,173.204,-1,-1,-1,-1,30,37.04412986314287,-9999,135246.466296875,0.8241729736328125,0.2888031005859375,-0.479705810546875,135246.442424875,-3.083491153940027,1.039964813790222,-0.2945103040963938,0.01790923625230789,0.004280601162463427,-0.01132841315120459,-0.002822458744049072,0.001232534646987915,0.002321630716323853,XArbitraryZVertical,-0.4875816599845783,-0.1415531392667504,0.860191199051225,0.04793632312125894,0.825255811214447,0.2902712821960449,-0.4844536781311035,0,0,0,-1,-1,135233.8374975417,unknown,2,2026-03-30T14:38:17.026-05:00,2026-03-30T10:54:16.334-05:00,3730,1.346119,0,0,2516.999,4,4,2026-03-30T14:36:34.095-05:00,796592307.3808063,0,0.02000046,99.60115,1,0.9,2026-03-30T14:37:50.703-05:00,72,1.2,2026-03-30T12:48:13.834-05:00,0.1236805929763694
2026-03-30T14:38:29.691-05:00,1774899509.49965,30.2887624397387,-97.73761320940574,173.204,-1,-1,-1,-1,30,37.04412986314287,-9999,135246.500221875,0.8182220458984375,0.2852020263671875,-0.480682373046875,135246.472580875,-3.084030363610287,1.039842370643867,-0.294448977837402,0.0169204268604517,-0.002023045904934406,-0.004792567808181047,0.000532686710357666,-0.001730024814605713,0.005712330341339111,XArbitraryZVertical,-0.4875701497681382,-0.1413983828852551,0.8602114889361651,0.04814441562841916,0.8252118229866028,0.2902126014232635,-0.4845636785030365,0,0,0,-1,-1,135233.8374975417,unknown,2,2026-03-30T14:38:17.026-05:00,2026-03-30T10:54:16.334-05:00,3730,1.346119,0,0,2516.999,4,4,2026-03-30T14:36:34.095-05:00,796592307.3808063,0,0.02000046,99.60115,1,0.9,2026-03-30T14:37:50.703-05:00,72,1.2,2026-03-30T12:48:13.834-05:00,0.1236805929763694
2026-03-30T14:38:29.726-05:00,1774899509.49965,30.2887624397387,-97.73761320940574,173.204,-1,-1,-1,-1,30,37.04412986314287,-9999,135246.534147875,0.8279266357421875,0.2860107421875,-0.479156494140625,135246.502735875,-3.084581710944162,1.039678720481816,-0.2945014444727493,0.01635821163654327,0.001205262495204806,-0.009483184665441513,-0.004837512969970703,-0.003870695829391479,0.004695266485214233,XArbitraryZVertical,-0.4875361552367189,-0.141290380861021,0.8602351862534211,0.04838295613128717,0.8251194357872009,0.2902627885341644,-0.4846910536289215,0,0,0,-1,-1,135233.8374975417,unknown,2,2026-03-30T14:38:17.026-05:00,2026-03-30T10:54:16.334-05:00,3730,1.346119,0,0,2516.999,4,4,2026-03-30T14:36:34.095-05:00,796592307.3808063,0,0.02000046,99.60115,1,0.9,2026-03-30T14:37:50.703-05:00,72,1.2,2026-03-30T12:48:13.834-05:00,0.1236805929763694
2026-03-30T14:38:29.761-05:00,1774899509.49965,30.2887624397387,-97.73761320940574,173.204,-1,-1,-1,-1,30,37.04412986314287,-9999,135246.568072875,0.8236083984375,0.2889862060546875,-0.4810333251953125,135246.563046875,-3.085216157606713,1.039410127671425,-0.2945434893104854,0.0004340175073593855,-0.005589216016232967,-0.002584460191428661,-0.002499520778656006,-0.003392130136489868,0.002301424741744995,XArbitraryZVertical,-0.4874633878460361,-0.1411602487765649,0.8602828553119125,0.04864729010643531,0.8249786496162415,0.2903030216693878,-0.4849064648151398,0,0,0,-1,-1,135233.8374975417,unknown,2,2026-03-30T14:38:17.026-05:00,2026-03-30T10:54:16.334-05:00,3730,1.346119,0,0,2516.999,4,4,2026-03-30T14:36:34.095-05:00,796592307.3808063,0,0.02000046,99.60115,1,0.9,2026-03-30T14:37:50.703-05:00,72,1.2,2026-03-30T12:48:13.834-05:00,0.1236805929763694
2026-03-30T14:38:29.791-05:00,1774899509.49965,30.2887624397387,-97.73761320940574,173.204,-1,-1,-1,-1,30,37.04412986314287,-9999,135246.601995875,0.8224639892578125,0.2891693115234375,-0.4828948974609375,135246.593202875,-3.085459305996514,1.039265871645475,-0.2945441316066698,0.005928718019276857,-0.001430017407983541,-0.005058321170508862,-0.008395552635192871,-0.0004935562610626221,-0.0002499818801879883,XArbitraryZVertical,-0.4874184567255561,-0.1411047746278103,0.8603120895848972,0.04874185250543311,0.8249085545539856,0.290303647518158,-0.4850253760814667,0,0,0,-1,-1,135233.8374975417,unknown,2,2026-03-30T14:38:17.026-05:00,2026-03-30T10:54:16.334-05:00,3730,1.346119,0,0,2516.999,4,4,2026-03-30T14:36:34.095-05:00,796592307.3808063,0,0.02000046,99.60115,1,0.9,2026-03-30T14:37:50.703-05:00,72,1.2,2026-03-30T12:48:13.834-05:00,0.1236805929763694
2026-03-30T14:38:29.827-05:00,1774899509.49965,30.2887624397387,-97.73761320940574,173.204,-1,-1,-1,-1,30,37.04412986314287,-9999,135246.635921875,0.8228759765625,0.289306640625,-0.484527587890625,135246.623357875,-3.085745504977641,1.0391449870641,-0.2945087982183409,0.009407782927155495,-0.002782300114631653,-0.0006860745488665998,-0.001814961433410645,0.002637803554534912,0.002616763114929199,XArbitraryZVertical,-0.4873883714145959,-0.1410228526876126,0.8603364866357204,0.04884771950896939,0.8248587250709534,0.2902698218822479,-0.485130250453949,0,0,0,-1,-1,135233.8374975417,unknown,2,2026-03-30T14:38:17.026-05:00,2026-03-30T10:54:16.334-05:00,3730,1.346119,0,0,2516.999,4,4,2026-03-30T14:36:34.095-05:00,796592307.3808063,0,0.02000046,99.60115,1,0.9,2026-03-30T14:37:50.703-05:00,72,1.2,2026-03-30T12:48:13.834-05:00,0.1236805929763694
2026-03-30T14:38:29.861-05:00,1774899509.49965,30.2887624397387,-97.73761320940574,173.204,-1,-1,-1,-1,30,37.04412986314287,-9999,135246.669846875,0.8219451904296875,0.28961181640625,-0.48370361328125,135246.653513875,-3.085851398569536,1.039147098778671,-0.2943728481415253,0.001926164142787457,0.003210584633052349,7.446079689543694e-05,-0.004535555839538574,-0.004251152276992798,0.001811027526855469,XArbitraryZVertical,-0.4874033083844747,-0.1409387874519427,0.8603411703753409,0.04885979355260094,0.8248937726020813,0.2901397347450256,-0.485148549079895,0,0,0,-1,-1,135233.8374975417,unknown,2,2026-03-30T14:38:17.026-05:00,2026-03-30T10:54:16.334-05:00,3730,1.346119,0,0,2516.999,4,4,2026-03-30T14:36:34.095-05:00,796592307.3808063,0,0.02000046,99.60115,1,0.9,2026-03-30T14:37:50.703-05:00,72,1.2,2026-03-30T12:48:13.834-05:00,0.1236805929763694
2026-03-30T14:38:29.897-05:00,1774899509.49965,30.2887624397387,-97.73761320940574,173.204,-1,-1,-1,-1,30,37.04412986314287,-9999,135246.703772875,0.824127197265625,0.27862548828125,-0.4814300537109375,135246.683668875,-3.086139313233939,1.039043717757352,-0.2942685688674412,0.001508469926193357,0.001448227092623711,0.0004483096126932651,-0.001169800758361816,-0.0009775161743164062,0.0003553032875061035,XArbitraryZVertical,-0.4873841471253154,-0.1408265024330062,0.86036529065697,0.04895057463938801,0.8248697519302368,0.2900399267673492,-0.4852491915225983,0,0,0,-1,-1,135233.8374975417,unknown,2,2026-03-30T14:38:17.026-05:00,2026-03-30T10:54:16.334-05:00,3730,1.346119,0,0,2516.999,4,4,2026-03-30T14:36:34.095-05:00,796592307.3808063,0,0.02000046,99.60115,1,0.9,2026-03-30T14:37:50.703-05:00,72,1.2,2026-03-30T12:48:13.834-05:00,0.1236805929763694
2026-03-30T14:38:29.927-05:00,1774899509.49965,30.2887624397387,-97.73761320940574,173.204,-1,-1,-1,-1,30,37.04412986314287,-9999,135246.737695875,0.821746826171875,0.2924041748046875,-0.4824676513671875,135246.713823875,-3.085876562332236,1.039153340714746,-0.2944619350272746,-0.008648759685456753,-0.0002148575149476528,-0.001641980372369289,0.000763237476348877,-0.004397422075271606,0.001899600028991699,XArbitraryZVertical,-0.4874034511826347,-0.1409706428020968,0.8603340121323318,0.04889307697556153,0.8248745799064636,0.2902249991893768,-0.4851303100585938,0,0,0,-1,-1,135233.8374975417,unknown,2,2026-03-30T14:38:17.026-05:00,2026-03-30T10:54:16.334-05:00,3730,1.346119,0,0,2516.999,4,4,2026-03-30T14:36:34.095-05:00,796592307.3808063,0,0.02000046,99.60115,1,0.9,2026-03-30T14:37:50.703-05:00,72,1.2,2026-03-30T12:48:13.834-05:00,0.1236805929763694
2026-03-30T14:38:29.962-05:00,1774899509.49965,30.2887624397387,-97.73761320940574,173.204,-1,-1,-1,-1,30,37.04412986314287,-9999,135246.771621875,0.8231048583984375,0.2891082763671875,-0.4821319580078125,135246.743979875,-3.085898668852253,1.039137115906316,-0.2944702135431079,-0.001441447180695832,0.002940189559012651,0.001015854417346418,-0.001241028308868408,0.001515060663223267,0.002522170543670654,XArbitraryZVertical,-0.4873976220659929,-0.1409691951655561,0.8603369932100954,0.04890348184187268,0.8248646259307861,0.2902328968048096,-0.4851424992084503,0,0,0,-1,-1,135233.8374975417,unknown,2,2026-03-30T14:38:17.026-05:00,2026-03-30T10:54:16.334-05:00,3730,1.346119,0,0,2516.999,4,4,2026-03-30T14:36:34.095-05:00,796592307.3808063,0,0.02000046,99.60115,1,0.9,2026-03-30T14:37:50.703-05:00,72,1.2,2026-03-30T12:48:13.834-05:00,0.1236805929763694
2026-03-30T14:38:29.997-05:00,1774899509.49965,30.2887624397387,-97.73761320940574,173.204,-1,-1,-1,-1,30,37.04412986314287,-9999,135246.805546875,0.8220062255859375,0.2837677001953125,-0.4813385009765625,135246.774134875,-3.085875574222059,1.039215728509009,-0.2945077171109461,0.006361437030136585,0.002685014856979251,-0.001875078654848039,-0.0006899833679199219,0.0003042519092559814,0.003046929836273193,XArbitraryZVertical,-0.487427985639951,-0.1409889558455689,0.8603163235525254,0.04890835024455393,0.8248934149742126,0.2902688086032867,-0.485072135925293,0,0,0,-1,-1,135246.703772875,unknown,2,2026-03-30T14:38:29.892-05:00,2026-03-30T10:54:16.334-05:00,3730,1.346119,0,0,2516.999,4,4,2026-03-30T14:36:34.095-05:00,796592309.9549677,0,-0.07999802,99.60163,1,0.9,2026-03-30T14:37:50.703-05:00,72,1.2,2026-03-30T12:48:13.834-05:00,0.1236805929763694
2026-03-30T14:38:30.032-05:00,1774899509.49965,30.2887624397387,-97.73761320940574,173.204,-1,-1,-1,-1,30,37.04412986314287,-9999,135246.839471875,0.82110595703125,0.28460693359375,-0.4827728271484375,135246.834445875,-3.085604761116471,1.039542577973612,-0.2947295245487258,-0.01514507550746202,0.002995257265865803,-0.001086203847080469,-0.001525342464447021,-0.004333049058914185,0.002759873867034912,XArbitraryZVertical,-0.4875387485867432,-0.1411419330601842,0.8602306056985914,0.04886978420404238,0.8249963521957397,0.2904810607433319,-0.4847698509693146,0,0,0,-1,-1,135246.703772875,unknown,2,2026-03-30T14:38:29.892-05:00,2026-03-30T10:54:16.334-05:00,3730,1.346119,0,0,2516.999,4,4,2026-03-30T14:36:34.095-05:00,796592309.9549677,0,-0.07999802,99.60163,1,0.9,2026-03-30T14:37:50.703-05:00,72,1.2,2026-03-30T12:48:13.834-05:00,0.1236805929763694
2026-03-30T14:38:30.062-05:00,1774899509.49965,30.2887624397387,-97.73761320940574,173.204,-1,-1,-1,-1,30,37.04412986314287,-9999,135246.873395875,0.8230438232421875,0.28173828125,-0.477569580078125,135246.864601875,-3.084988488540482,1.039827578746596,-0.295129274119429,-0.03294231370091438,-0.001332978717982769,-0.004617580678313971,-0.00272291898727417,-0.007996201515197754,0.007074028253555298,XArbitraryZVertical,-0.4875983925028709,-0.1414563296087838,0.86015336210594,0.04872376854659044,0.8250342011451721,0.2908635437488556,-0.4844758212566376,0,0,0,-1,-1,135246.703772875,unknown,2,2026-03-30T14:38:29.892-05:00,2026-03-30T10:54:16.334-05:00,3730,1.346119,0,0,2516.999,4,4,2026-03-30T14:36:34.095-05:00,796592309.9549677,0,-0.07999802,99.60163,1,0.9,2026-03-30T14:37:50.703-05:00,72,1.2,2026-03-30T12:48:13.834-05:00,0.1236805929763694
2026-03-30T14:38:30.098-05:00,1774899509.49965,30.2887624397387,-97.73761320940574,173.204,-1,-1,-1,-1,30,37.04412986314287,-9999,135246.907320875,0.8231353759765625,0.2859954833984375,-0.4779815673828125,135246.894756875,-3.084191920536792,1.03996805797487,-0.2957962894278034,-0.03568530455231667,-0.005197085440158844,-0.006386503577232361,-0.004027247428894043,-0.004789084196090698,0.005303382873535156,XArbitraryZVertical,-0.4875698223157391,-0.1419325768427344,0.8601006334539453,0.04855617455218668,0.8249348402023315,0.2915016412734985,-0.4842616319656372,0,0,0,-1,-1,135246.703772875,unknown,2,2026-03-30T14:38:29.892-05:00,2026-03-30T10:54:16.334-05:00,3730,1.346119,0,0,2516.999,4,4,2026-03-30T14:36:34.095-05:00,796592309.9549677,0,-0.07999802,99.60163,1,0.9,2026-03-30T14:37:50.703-05:00,72,1.2,2026-03-30T12:48:13.834-05:00,0.1236805929763694
2026-03-30T14:38:30.142-05:00,1774899509.49965,30.2887624397387,-97.73761320940574,173.204,-1,-1,-1,-1,30,37.04412986314287,-9999,135246.941246875,0.820770263671875,0.2930755615234375,-0.4808502197265625,135246.924912875,-3.083383579388099,1.04010248802606,-0.2964732863255437,-0.02948712930083275,-0.0003275824710726738,-0.004337555728852749,-0.003723621368408203,-0.001789778470993042,0.003429323434829712,XArbitraryZVertical,-0.4875369837301687,-0.1424160757831793,0.8600488736898961,0.04838566921017053,0.8248294591903687,0.2921491861343384,-0.4840506911277771,0,0,0,-1,-1,135246.703772875,unknown,2,2026-03-30T14:38:29.892-05:00,2026-03-30T10:54:16.334-05:00,3730,1.346119,0,0,2516.999,4,4,2026-03-30T14:36:34.095-05:00,796592309.9549677,0,-0.07999802,99.60163,1,0.9,2026-03-30T14:37:50.703-05:00,72,1.2,2026-03-30T12:48:13.834-05:00,0.1236805929763694
2026-03-30T14:38:30.168-05:00,1774899509.49965,30.2887624397387,-97.73761320940574,173.204,-1,-1,-1,-1,30,37.04412986314287,-9999,135246.975171875,0.82830810546875,0.292266845703125,-0.47967529296875,135246.955067875,-3.082719757765986,1.040279251919799,-0.296671668024488,-0.02011668682098389,0.001167394686490297,0.008685627020895481,-0.003011465072631836,0.003055930137634277,0.002903223037719727,XArbitraryZVertical,-0.4875559001752602,-0.1426585096242148,0.8600105902967746,0.04816190362065577,0.8248650431632996,0.2923389077186584,-0.4838756024837494,0,0,0,-1,-1,135246.703772875,unknown,2,2026-03-30T14:38:29.892-05:00,2026-03-30T10:54:16.334-05:00,3730,1.346119,0,0,2516.999,4,4,2026-03-30T14:36:34.095-05:00,796592309.9549677,0,-0.07999802,99.60163,1,0.9,2026-03-30T14:37:50.703-05:00,72,1.2,2026-03-30T12:48:13.834-05:00,0.1236805929763694
2026-03-30T14:38:30.199-05:00,1774899509.49965,30.2887624397387,-97.73761320940574,173.204,-1,-1,-1,-1,30,37.04412986314287,-9999,135247.009094875,0.8243865966796875,0.2904815673828125,-0.47674560546875,135246.985223875,-3.081859097024386,1.040332142520108,-0.2967623224701093,-0.02181882411241531,-0.0176919512450695,0.01209248695522547,0.009925186634063721,0.0001311004161834717,0.009682118892669678,XArbitraryZVertical,-0.4875127044953466,-0.1429058235321971,0.8600132663246299,0.04781801900066396,0.824867844581604,0.2924256026744843,-0.4838185906410217,0,0,0,-1,-1,135246.703772875,unknown,2,2026-03-30T14:38:29.892-05:00,2026-03-30T10:54:16.334-05:00,3730,1.346119,0,0,2516.999,4,4,2026-03-30T14:36:34.095-05:00,796592309.9549677,0,-0.07999802,99.60163,1,0.9,2026-03-30T14:37:50.703-05:00,72,1.2,2026-03-30T12:48:13.834-05:00,0.1236805929763694
2026-03-30T14:38:30.233-05:00,1774899510.168855,30.28879566524293,-97.73755011331893,158.8484,1.758698,1.677888,-1,-1,89.55466461181641,25.30590731270198,-9999,135247.043020875,0.82391357421875,0.29132080078125,-0.483612060546875,135247.015378875,-3.080848882818032,1.039816084503131,-0.2968680695396043,-0.03596629202365875,-0.03169290348887444,0.01364967040717602,-0.002569913864135742,-0.004486650228500366,0.006338417530059814,XArbitraryZVertical,-0.487213269568295,-0.1432095170280527,0.8601570561262046,0.04737284928153291,0.8245913982391357,0.2925267219543457,-0.4842285215854645,0,0,0,-1,-1,135246.703772875,unknown,2,2026-03-30T14:38:29.892-05:00,2026-03-30T10:54:16.334-05:00,3730,1.346119,0,0,2516.999,4,4,2026-03-30T14:36:34.095-05:00,796592309.9549677,0,-0.07999802,99.60163,1,0.9,2026-03-30T14:37:50.703-05:00,72,1.2,2026-03-30T12:48:13.834-05:00,0.1236805929763694
2026-03-30T14:38:30.269-05:00,1774899510.168855,30.28879566524293,-97.73755011331893,158.8484,1.758698,1.677888,-1,-1,89.55466461181641,25.30590731270198,-9999,135247.076945875,0.805267333984375,0.3037109375,-0.4882049560546875,135247.045534875,-3.079676356745801,1.039011611120465,-0.2973213971492502,-0.03459269553422928,-0.04386872425675392,0.00162454741075635,-0.0002651810646057129,0.0001000463962554932,0.00104445219039917,XArbitraryZVertical,-0.4867605287258001,-0.1437079527532054,0.8603548505602086,0.04692298510922734,0.8240871429443359,0.2929601967334747,-0.4848244190216064,0,0,0,-1,-1,135246.703772875,unknown,2,2026-03-30T14:38:29.892-05:00,2026-03-30T10:54:16.334-05:00,3730,1.346119,0,0,2516.999,4,4,2026-03-30T14:36:34.095-05:00,796592309.9549677,0,-0.07999802,99.60163,1,0.9,2026-03-30T14:37:50.703-05:00,72,1.2,2026-03-30T12:48:13.834-05:00,0.1236805929763694
2026-03-30T14:38:30.304-05:00,1774899510.168855,30.28879566524293,-97.73755011331893,158.8484,1.758698,1.677888,-1,-1,89.55466461181641,25.30590731270198,-9999,135247.110871875,0.8213653564453125,0.289306640625,-0.490234375,135247.105845875,-3.079823555159817,1.03675238402043,-0.2979188923750584,-0.01183039415627718,-0.02005444280803204,-0.007183528039604425,0.005911707878112793,-0.007795393466949463,-0.001090466976165771,XArbitraryZVertical,-0.4857690883991664,-0.1439809467021941,0.8608666784728711,0.04697150609464542,0.8228388428688049,0.2935314178466797,-0.4865957498550415,0,0,0,-1,-1,135246.703772875,unknown,2,2026-03-30T14:38:29.892-05:00,2026-03-30T10:54:16.334-05:00,3730,1.346119,0,0,2516.999,4,4,2026-03-30T14:36:34.095-05:00,796592309.9549677,0,-0.07999802,99.60163,1,0.9,2026-03-30T14:37:50.703-05:00,72,1.2,2026-03-30T12:48:13.834-05:00,0.1236805929763694
2026-03-30T14:38:30.334-05:00,1774899510.168855,30.28879566524293,-97.73755011331893,158.8484,1.758698,1.677888,-1,-1,89.55466461181641,25.30590731270198,-9999,135247.144794875,0.8169403076171875,0.285186767578125,-0.4868011474609375,135247.136000875,-3.080081272688937,1.036282140681142,-0.2978666702542266,0.01388142816722393,-0.006088447757065296,-0.006008921656757593,-0.0006932616233825684,0.0007079243659973145,-0.003366053104400635,XArbitraryZVertical,-0.4855878128477951,-0.1439070509717176,0.8609778464963149,0.04703569683637609,0.8226231336593628,0.2934814989566803,-0.4869904816150665,0,0,0,-1,-1,135246.703772875,unknown,2,2026-03-30T14:38:29.892-05:00,2026-03-30T10:54:16.334-05:00,3730,1.346119,0,0,2516.999,4,4,2026-03-30T14:36:34.095-05:00,796592309.9549677,0,-0.07999802,99.60163,1,0.9,2026-03-30T14:37:50.703-05:00,72,1.2,2026-03-30T12:48:13.834-05:00,0.1236805929763694
2026-03-30T14:38:30.370-05:00,1774899510.168855,30.28879566524293,-97.73755011331893,158.8484,1.758698,1.677888,-1,-1,89.55466461181641,25.30590731270198,-9999,135247.17872175,0.8083343505859375,0.2659454345703125,-0.479583740234375,135247.16615775,-3.080764042366162,1.036031369516891,-0.2974609824929477,0.02173233777284622,0.01049456838518381,-0.01962479390203953,-0.003572702407836914,0.01505750417709351,-0.002153068780899048,XArbitraryZVertical,-0.4855491423990944,-0.1435734538367897,0.8610457252194338,0.04721151710454222,0.8226034045219421,0.2930936515331268,-0.4872573912143707,0,0,0,-1,-1,135246.703772875,unknown,2,2026-03-30T14:38:29.892-05:00,2026-03-30T10:54:16.334-05:00,3730,1.346119,0,0,2516.999,4,4,2026-03-30T14:36:34.095-05:00,796592309.9549677,0,-0.07999802,99.60163,1,0.9,2026-03-30T14:37:50.703-05:00,72,1.2,2026-03-30T12:48:13.834-05:00,0.1236805929763694
2026-03-30T14:38:30.405-05:00,1774899510.168855,30.28879566524293,-97.73755011331893,158.8484,1.758698,1.677888,-1,-1,89.55466461181641,25.30590731270198,-9999,135247.21264675,0.813140869140625,0.2950286865234375,-0.4853515625,135247.19631275,-3.081046032238074,1.035950662218476,-0.2973116155715299,0.01973598636686802,0.004376963246613741,-0.004911598283797503,-0.003464221954345703,0.01030227541923523,0.004298537969589233,XArbitraryZVertical,-0.4855420589316224,-0.1434429280070263,0.8610671214184689,0.04729029239892897,0.8226016759872437,0.292950838804245,-0.4873460829257965,0,0,0,-1,-1,135246.703772875,unknown,2,2026-03-30T14:38:29.892-05:00,2026-03-30T10:54:16.334-05:00,3730,1.346119,0,0,2516.999,4,4,2026-03-30T14:36:34.095-05:00,796592309.9549677,0,-0.07999802,99.60163,1,0.9,2026-03-30T14:37:50.703-05:00,72,1.2,2026-03-30T12:48:13.834-05:00,0.1236805929763694
2026-03-30T14:38:30.439-05:00,1774899510.168855,30.28879566524293,-97.73755011331893,158.8484,1.758698,1.677888,-1,-1,89.55466461181641,25.30590731270198,-9999,135247.24657175,0.8275604248046875,0.2982025146484375,-0.4985809326171875,135247.22646875,-3.08177362454547,1.035891760552128,-0.2969545476482722,0.03447869047522545,0.00583978183567524,-0.002421990502625704,-0.005585372447967529,0.005913466215133667,-0.005456924438476562,XArbitraryZVertical,-0.485586511098874,-0.1431147325146377,0.8610845293318951,0.04751125054911542,0.8226629495620728,0.2926094233989716,-0.4874478280544281,0,0,0,-1,-1,135246.703772875,unknown,2,2026-03-30T14:38:29.892-05:00,2026-03-30T10:54:16.334-05:00,3730,1.346119,0,0,2516.999,4,4,2026-03-30T14:36:34.095-05:00,796592309.9549677,0,-0.07999802,99.60163,1,0.9,2026-03-30T14:37:50.703-05:00,72,1.2,2026-03-30T12:48:13.834-05:00,0.1236805929763694
2026-03-30T14:38:30.470-05:00,1774899510.168855,30.28879566524293,-97.73755011331893,158.8484,1.758698,1.677888,-1,-1,89.55466461181641,25.30590731270198,-9999,135247.28049575,0.8187103271484375,0.298095703125,-0.50189208984375,135247.25662375,-3.082887332056275,1.035968673050185,-0.2962491613268967,0.05660949274897575,0.02214007824659348,0.004177969414740801,-0.001634597778320312,0.00388723611831665,-0.01301395893096924,XArbitraryZVertical,-0.4857339164164072,-0.1425402867101189,0.8610795109153192,0.04782225505406057,0.822877824306488,0.2919348180294037,-0.4874896705150604,0,0,0,-1,-1,135246.703772875,unknown,2,2026-03-30T14:38:29.892-05:00,2026-03-30T10:54:16.334-05:00,3730,1.346119,0,0,2516.999,4,4,2026-03-30T14:36:34.095-05:00,796592309.9549677,0,-0.07999802,99.60163,1,0.9,2026-03-30T14:37:50.703-05:00,72,1.2,2026-03-30T12:48:13.834-05:00,0.1236805929763694
2026-03-30T14:38:30.505-05:00,1774899510.168855,30.28879566524293,-97.73755011331893,158.8484,1.758698,1.677888,-1,-1,89.55466461181641,25.30590731270198,-9999,135247.31442075,0.8242340087890625,0.2848968505859375,-0.4914703369140625,135247.28677975,-3.084847698087229,1.036116831351354,-0.2950424382812998,0.0762840136885643,0.03025258891284466,0.001511768787167966,-0.0007123947143554688,0.002920627593994141,-0.01500141620635986,XArbitraryZVertical,-0.4859958701526428,-0.1415434871972203,0.8610650598617936,0.04837916866708133,0.8232526183128357,0.2907804548740387,-0.4875469207763672,0,0,0,-1,-1,135246.703772875,unknown,2,2026-03-30T14:38:29.892-05:00,2026-03-30T10:54:16.334-05:00,3730,1.346119,0,0,2516.999,4,4,2026-03-30T14:36:34.095-05:00,796592309.9549677,0,-0.07999802,99.60163,1,0.9,2026-03-30T14:37:50.703-05:00,72,1.2,2026-03-30T12:48:13.834-05:00,0.1236805929763694
2026-03-30T14:38:30.541-05:00,1774899510.168855,30.28879566524293,-97.73755011331893,158.8484,1.758698,1.677888,-1,-1,89.55466461181641,25.30590731270198,-9999,135247.34834675,0.819488525390625,0.2853240966796875,-0.4748077392578125,135247.31693475,-3.086769150364999,1.036574271852466,-0.2938591305805296,0.07341445982456207,0.03264999389648438,0.001908643287606537,0.001500487327575684,-0.005407422780990601,-0.002462089061737061,XArbitraryZVertical,-0.4863854660927759,-0.140558233190946,0.8609743818657788,0.04894677399781962,0.8237711191177368,0.2896480858325958,-0.4873451292514801,0,0,0,-1,-1,135246.703772875,unknown,2,2026-03-30T14:38:29.892-05:00,2026-03-30T10:54:16.334-05:00,3730,1.346119,0,0,2516.999,4,4,2026-03-30T14:36:34.095-05:00,796592309.9549677,0,-0.07999802,99.60163,1,0.9,2026-03-30T14:37:50.703-05:00,72,1.2,2026-03-30T12:48:13.834-05:00,0.1236805929763694
2026-03-30T14:38:30.575-05:00,1774899510.168855,30.28879566524293,-97.73755011331893,158.8484,1.758698,1.677888,-1,-1,89.55466461181641,25.30590731270198,-9999,135247.38227175,0.8165740966796875,0.2902984619140625,-0.4754180908203125,135247.37724575,-3.090800770785567,1.037142343406248,-0.291389634056951,0.08579114824533463,0.02166111581027508,0.003855676157400012,-0.009979128837585449,-0.0001895129680633545,0.0139116644859314,XArbitraryZVertical,-0.4870284728654309,-0.1385047425439811,0.8608765108143929,0.05011267373102851,0.8246610760688782,0.2872835695743561,-0.4872394204139709,0,0,0,-1,-1,135246.703772875,unknown,2,2026-03-30T14:38:29.892-05:00,2026-03-30T10:54:16.334-05:00,3730,1.346119,0,0,2516.999,4,4,2026-03-30T14:36:34.095-05:00,796592309.9549677,0,-0.07999802,99.60163,1,0.9,2026-03-30T14:37:50.703-05:00,72,1.2,2026-03-30T12:48:13.834-05:00,0.1236805929763694
2026-03-30T14:38:30.605-05:00,1774899510.168855,30.28879566524293,-97.73755011331893,158.8484,1.758698,1.677888,-1,-1,89.55466461181641,25.30590731270198,-9999,135247.41619575,0.8309326171875,0.2902374267578125,-0.4889678955078125,135247.40740175,-3.093112234313884,1.037244212948394,-0.2900049005335719,0.08396460115909576,0.02703637070953846,0.005227390211075544,0.0001885890960693359,-0.001304298639297485,0.002188712358474731,XArbitraryZVertical,-0.4872961953083892,-0.1373455728833893,0.8608719678800808,0.05077303523874989,0.8250523805618286,0.2859569191932678,-0.4873572289943695,0,0,0,-1,-1,135246.703772875,unknown,2,2026-03-30T14:38:29.892-05:00,2026-03-30T10:54:16.334-05:00,3730,1.346119,0,0,2516.999,4,4,2026-03-30T14:36:34.095-05:00,796592309.9549677,0,-0.07999802,99.60163,1,0.9,2026-03-30T14:37:50.703-05:00,72,1.2,2026-03-30T12:48:13.834-05:00,0.1236805929763694
2026-03-30T14:38:30.642-05:00,1774899510.168855,30.28879566524293,-97.73755011331893,158.8484,1.758698,1.677888,-1,-1,89.55466461181641,25.30590731270198,-9999,135247.45012075,0.81231689453125,0.2801513671875,-0.488037109375,135247.43755675,-3.095544865261575,1.03741176580577,-0.2882184098131141,0.07017297297716141,0.01755358278751373,0.05136199295520782,-0.002345740795135498,0.007427096366882324,0.0001426935195922852,XArbitraryZVertical,-0.487616437332011,-0.1359824351898802,0.8608704361145871,0.0513908616474249,0.825572669506073,0.284244567155838,-0.4874779880046844,0,0,0,-1,-1,135246.703772875,unknown,2,2026-03-30T14:38:29.892-05:00,2026-03-30T10:54:16.334-05:00,3730,1.346119,0,0,2516.999,4,4,2026-03-30T14:36:34.095-05:00,796592309.9549677,0,-0.07999802,99.60163,1,0.9,2026-03-30T14:37:50.703-05:00,72,1.2,2026-03-30T12:48:13.834-05:00,0.1236805929763694
2026-03-30T14:38:30.676-05:00,1774899510.168855,30.28879566524293,-97.73755011331893,158.8484,1.758698,1.677888,-1,-1,89.55466461181641,25.30590731270198,-9999,135247.48404575,0.8152618408203125,0.262603759765625,-0.4740142822265625,135247.46771275,-3.098220801264183,1.037617447098023,-0.2860882016417731,0.1443458646535873,0.03089387714862823,0.02783120237290859,0.01159125566482544,0.03666123747825623,-0.005671381950378418,XArbitraryZVertical,-0.4879818414862791,-0.1344109138200041,0.8608718238417934,0.05203108869856368,0.8261925578117371,0.2822015881538391,-0.4876148700714111,0,0,0,-1,-1,135246.703772875,unknown,2,2026-03-30T14:38:29.892-05:00,2026-03-30T10:54:16.334-05:00,3730,1.346119,0,0,2516.999,4,4,2026-03-30T14:36:34.095-05:00,796592309.9549677,0,-0.07999802,99.60163,1,0.9,2026-03-30T14:37:50.703-05:00,72,1.2,2026-03-30T12:48:13.834-05:00,0.1236805929763694
2026-03-30T14:38:30.711-05:00,1774899510.168855,30.28879566524293,-97.73755011331893,158.8484,1.758698,1.677888,-1,-1,89.55466461181641,25.30590731270198,-9999,135247.51797175,0.811798095703125,0.2671966552734375,-0.4926605224609375,135247.49786775,-3.100525387972171,1.037741720474293,-0.284164877910228,0.08267343044281006,0.01974004879593849,0.005552270449697971,-0.01473790407180786,-0.006781160831451416,0.008096456527709961,XArbitraryZVertical,-0.4882746056692619,-0.1330201823643492,0.8608898681140694,0.05255696650995419,0.8267190456390381,0.2803559303283691,-0.4877870678901672,0,0,0,-1,-1,135246.703772875,unknown,2,2026-03-30T14:38:29.892-05:00,2026-03-30T10:54:16.334-05:00,3730,1.346119,0,0,2516.999,4,4,2026-03-30T14:36:34.095-05:00,796592309.9549677,0,-0.07999802,99.60163,1,0.9,2026-03-30T14:37:50.703-05:00,72,1.2,2026-03-30T12:48:13.834-05:00,0.1236805929763694
2026-03-30T14:38:30.742-05:00,1774899510.168855,30.28879566524293,-97.73755011331893,158.8484,1.758698,1.677888,-1,-1,89.55466461181641,25.30590731270198,-9999,135247.55189475,0.823883056640625,0.2426300048828125,-0.4598846435546875,135247.52802375,-3.102096455806977,1.037935182915287,-0.2827224801345505,0.1200191155076027,0.02282802946865559,0.005232496652752161,-0.01281458139419556,0.0006461143493652344,-0.005301624536514282,XArbitraryZVertical,-0.4885250016360879,-0.1320125978689088,0.8608823706430039,0.05289027063336441,0.8271607756614685,0.2789710760116577,-0.4878319799900055,0,0,0,-1,-1,135246.703772875,unknown,2,2026-03-30T14:38:29.892-05:00,2026-03-30T10:54:16.334-05:00,3730,1.346119,0,0,2516.999,4,4,2026-03-30T14:36:34.095-05:00,796592309.9549677,0,-0.07999802,99.60163,1,0.9,2026-03-30T14:37:50.703-05:00,72,1.2,2026-03-30T12:48:13.834-05:00,0.1236805929763694
2026-03-30T14:38:30.778-05:00,1774899510.168855,30.28879566524293,-97.73755011331893,158.8484,1.758698,1.677888,-1,-1,89.55466461181641,25.30590731270198,-9999,135247.58582075,0.8206024169921875,0.27008056640625,-0.46466064453125,135247.55817875,-3.1036513158785,1.038020376639479,-0.2812319258413505,0.05729301646351814,0.007328657433390617,0.01262360531836748,-0.0140831470489502,-0.02534222602844238,0.02709570527076721,XArbitraryZVertical,-0.4887282335229786,-0.1309908700878163,0.8609042124882654,0.05319746262937592,0.8275596499443054,0.2775394022464752,-0.4879721999168396,0,0,0,-1,-1,135246.703772875,unknown,2,2026-03-30T14:38:29.892-05:00,2026-03-30T10:54:16.334-05:00,3730,1.346119,0,0,2516.999,4,4,2026-03-30T14:36:34.095-05:00,796592309.9549677,0,-0.07999802,99.60163,1,0.9,2026-03-30T14:37:50.703-05:00,72,1.2,2026-03-30T12:48:13.834-05:00,0.1236805929763694
2026-03-30T14:38:30.812-05:00,1774899510.168855,30.28879566524293,-97.73755011331893,158.8484,1.758698,1.677888,-1,-1,89.55466461181641,25.30590731270198,-9999,135247.61974575,0.852569580078125,0.260467529296875,-0.45611572265625,135247.58833475,-3.104562552054923,1.037579777889113,-0.279832705471143,0.0292135551571846,-0.002495226915925741,0.002090849913656712,-0.01223331689834595,-0.01070728898048401,0.02234712243080139,XArbitraryZVertical,-0.4886578326779938,-0.130179399111501,0.8610660875388535,0.05321590094405927,0.8276781439781189,0.2761948704719543,-0.4885337054729462,0,0,0,-1,-1,135246.703772875,unknown,2,2026-03-30T14:38:29.892-05:00,2026-03-30T10:54:16.334-05:00,3730,1.346119,0,0,2516.999,4,4,2026-03-30T14:36:34.095-05:00,796592309.9549677,0,-0.07999802,99.60163,1,0.9,2026-03-30T14:37:50.703-05:00,72,1.2,2026-03-30T12:48:13.834-05:00,0.1236805929763694
2026-03-30T14:38:30.846-05:00,1774899510.168855,30.28879566524293,-97.73755011331893,158.8484,1.758698,1.677888,-1,-1,89.55466461181641,25.30590731270198,-9999,135247.65367175,0.8316650390625,0.2751922607421875,-0.4668426513671875,135247.64864575,-3.10673546795615,1.035867196077743,-0.2782658247695075,0.03899867832660675,-0.03827773779630661,0.007862554863095284,0.002378165721893311,0.002136260271072388,0.02140513062477112,XArbitraryZVertical,-0.4881272112361784,-0.1290217084409367,0.8615139399636021,0.05365465533065686,0.8272115588188171,0.2746886014938354,-0.4901704490184784,0,0,0,-1,-1,135246.703772875,unknown,2,2026-03-30T14:38:29.892-05:00,2026-03-30T10:54:16.334-05:00,3730,1.346119,0,0,2516.999,4,4,2026-03-30T14:36:34.095-05:00,796592309.9549677,0,-0.07999802,99.60163,1,0.9,2026-03-30T14:37:50.703-05:00,72,1.2,2026-03-30T12:48:13.834-05:00,0.1236805929763694
2026-03-30T14:38:30.877-05:00,1774899510.168855,30.28879566524293,-97.73755011331893,158.8484,1.758698,1.677888,-1,-1,89.55466461181641,25.30590731270198,-9999,135247.68759475,0.8300933837890625,0.2714691162109375,-0.4742889404296875,135247.67880075,-3.107397621026373,1.034446262479199,-0.2774326974010114,0.02120782807469368,-0.04805416241288185,0.01956125162541866,-0.002400457859039307,-0.008293002843856812,0.01973658800125122,XArbitraryZVertical,-0.4875923473066195,-0.128540334054882,0.8618894629840488,0.0536434807916521,0.8267107009887695,0.273887425661087,-0.4914621710777283,0,0,0,-1,-1,135246.703772875,unknown,2,2026-03-30T14:38:29.892-05:00,2026-03-30T10:54:16.334-05:00,3730,1.346119,0,0,2516.999,4,4,2026-03-30T14:36:34.095-05:00,796592309.9549677,0,-0.07999802,99.60163,1,0.9,2026-03-30T14:37:50.703-05:00,72,1.2,2026-03-30T12:48:13.834-05:00,0.1236805929763694
2026-03-30T14:38:30.912-05:00,1774899510.168855,30.28879566524293,-97.73755011331893,158.8484,1.758698,1.677888,-1,-1,89.55466461181641,25.30590731270198,-9999,135247.72151975,0.8236541748046875,0.2713165283203125,-0.4885711669921875,135247.70895675,-3.107642740545894,1.03285775547224,-0.2769825624592105,0.0005896571092307568,-0.0516059622168541,0.005935101769864559,-0.004471123218536377,-0.006959795951843262,0.01206392049789429,XArbitraryZVertical,-0.486942028725933,-0.1283296725485022,0.8622950818463871,0.0535365362252291,0.8260347843170166,0.2734544575214386,-0.4928379058837891,0,0,0,-1,-1,135246.703772875,unknown,2,2026-03-30T14:38:29.892-05:00,2026-03-30T10:54:16.334-05:00,3730,1.346119,0,0,2516.999,4,4,2026-03-30T14:36:34.095-05:00,796592309.9549677,0,-0.07999802,99.60163,1,0.9,2026-03-30T14:37:50.703-05:00,72,1.2,2026-03-30T12:48:13.834-05:00,0.1236805929763694
2026-03-30T14:38:30.947-05:00,1774899510.168855,30.28879566524293,-97.73755011331893,158.8484,1.758698,1.677888,-1,-1,89.55466461181641,25.30590731270198,-9999,135247.75544575,0.8178558349609375,0.293670654296875,-0.5089569091796875,135247.73911175,-3.107402108807735,1.031494853231864,-0.2769238870033698,0.000133812427520752,-0.04132948070764542,0.01591530255973339,-0.001355767250061035,0.009805023670196533,-0.001527249813079834,XArbitraryZVertical,-0.4863412812599621,-0.1283994003487128,0.8626364284331025,0.05333089369425346,0.8253760933876038,0.2733980417251587,-0.4939714968204498,0,0,0,-1,-1,135246.703772875,unknown,2,2026-03-30T14:38:29.892-05:00,2026-03-30T10:54:16.334-05:00,3730,1.346119,0,0,2516.999,4,4,2026-03-30T14:36:34.095-05:00,796592309.9549677,0,-0.07999802,99.60163,1,0.9,2026-03-30T14:37:50.703-05:00,72,1.2,2026-03-30T12:48:13.834-05:00,0.1236805929763694
2026-03-30T14:38:30.982-05:00,1774899510.168855,30.28879566524293,-97.73755011331893,158.8484,1.758698,1.677888,-1,-1,89.55466461181641,25.30590731270198,-9999,135247.78937075,0.8204345703125,0.2906951904296875,-0.5163116455078125,135247.76926775,-3.108029440394347,1.030351939273845,-0.2760472548153133,0.06014719232916832,-0.02325893938541412,0.02237418666481972,-0.009311914443969727,0.01989519596099854,-0.01839017868041992,XArbitraryZVertical,-0.4859245853329571,-0.1279002193641164,0.8629464854650845,0.05331341968371033,0.82501620054245,0.2725546956062317,-0.4950376749038696,0,0,0,-1,-1,135246.703772875,unknown,2,2026-03-30T14:38:29.892-05:00,2026-03-30T10:54:16.334-05:00,3730,1.346119,0,0,2516.999,4,4,2026-03-30T14:36:34.095-05:00,796592309.9549677,0,-0.07999802,99.60163,1,0.9,2026-03-30T14:37:50.703-05:00,72,1.2,2026-03-30T12:48:13.834-05:00,0.1236805929763694
2026-03-30T14:38:31.013-05:00,1774899510.168855,30.28879566524293,-97.73755011331893,158.8484,1.758698,1.677888,-1,-1,89.55466461181641,25.30590731270198,-9999,135247.82329475,0.8286590576171875,0.2588958740234375,-0.5108489990234375,135247.79942275,-3.109865951290046,1.02945527437361,-0.2739956240923448,0.1003182530403137,-0.00362273957580328,0.03256601467728615,-0.004462361335754395,0.0105476975440979,-0.02198696136474609,XArbitraryZVertical,-0.4857381681914577,-0.1265949499530712,0.8632293846721548,0.05354654562703132,0.8250494599342346,0.2705801725387573,-0.496064305305481,0,0,0,-1,-1,135246.703772875,unknown,2,2026-03-30T14:38:29.892-05:00,2026-03-30T10:54:16.334-05:00,3730,1.346119,0,0,2516.999,4,4,2026-03-30T14:36:34.095-05:00,796592309.9549677,0,-0.07999802,99.60163,1,0.9,2026-03-30T14:37:50.703-05:00,72,1.2,2026-03-30T12:48:13.834-05:00,0.1236805929763694
2026-03-30T14:38:31.048-05:00,1774899510.168855,30.28879566524293,-97.73755011331893,158.8484,1.758698,1.677888,-1,-1,89.55466461181641,25.30590731270198,-9999,135247.85721975,0.8271636962890625,0.237396240234375,-0.5023193359375,135247.82957875,-3.111666226026193,1.028977271806155,-0.2719452733897998,0.05607180297374725,0.005014914087951183,0.02838084101676941,0.004670262336730957,-0.01347881555557251,-0.01219809055328369,XArbitraryZVertical,-0.4857274696281416,-0.1252876120607354,0.8634108754276835,0.05379184662776423,0.8252858519554138,0.2686057388782501,-0.4967436790466309,0,0,0,-1,-1,135246.703772875,unknown,2,2026-03-30T14:38:29.892-05:00,2026-03-30T10:54:16.334-05:00,3730,1.346119,0,0,2516.999,4,4,2026-03-30T14:36:34.095-05:00,796592309.9549677,0,-0.07999802,99.60163,1,0.9,2026-03-30T14:37:50.703-05:00,72,1.2,2026-03-30T12:48:13.834-05:00,0.1236805929763694
2026-03-30T14:38:31.084-05:00,1774899510.168855,30.28879566524293,-97.73755011331893,158.8484,1.758698,1.677888,-1,-1,89.55466461181641,25.30590731270198,-9999,135247.89114575,0.8280792236328125,0.2429351806640625,-0.5062103271484375,135247.85973375,-3.111834375634231,1.0290975660638,-0.2710680727844355,-0.01274605467915535,0.004694678355008364,0.01641366444528103,0.001296043395996094,-0.03048655390739441,-0.007064342498779297,XArbitraryZVertical,-0.4858247685585083,-0.1248657150463888,0.8634256255856925,0.05365735645335967,0.8255471587181091,0.2677606642246246,-0.4967657029628754,0,0,0,-1,-1,135246.703772875,unknown,2,2026-03-30T14:38:29.892-05:00,2026-03-30T10:54:16.334-05:00,3730,1.346119,0,0,2516.999,4,4,2026-03-30T14:36:34.095-05:00,796592309.9549677,0,-0.07999802,99.60163,1,0.9,2026-03-30T14:37:50.703-05:00,72,1.2,2026-03-30T12:48:13.834-05:00,0.1236805929763694
2026-03-30T14:38:31.118-05:00,1774899510.168855,30.28879566524293,-97.73755011331893,158.8484,1.758698,1.677888,-1,-1,89.55466461181641,25.30590731270198,-9999,135247.92507075,0.8263092041015625,0.2509307861328125,-0.492767333984375,135247.92004475,-3.109711606451158,1.03025783480546,-0.2720882901378923,-0.0545964352786541,0.01078691147267818,-0.01117178983986378,0.003609895706176758,-0.02181059122085571,0.0001221597194671631,XArbitraryZVertical,-0.4861518106704874,-0.1257899042645671,0.8631439692384547,0.0530635608422844,0.8258882761001587,0.268743485212326,-0.4956666231155396,0,0,0,-1,-1,135246.703772875,unknown,2,2026-03-30T14:38:29.892-05:00,2026-03-30T10:54:16.334-05:00,3730,1.346119,0,0,2516.999,4,4,2026-03-30T14:36:34.095-05:00,796592309.9549677,0,-0.07999802,99.60163,1,0.9,2026-03-30T14:37:50.703-05:00,72,1.2,2026-03-30T12:48:13.834-05:00,0.1236805929763694
2026-03-30T14:38:31.148-05:00,1774899510.168855,30.28879566524293,-97.73755011331893,158.8484,1.758698,1.677888,-1,-1,89.55466461181641,25.30590731270198,-9999,135247.95899375,0.8289337158203125,0.260711669921875,-0.4574432373046875,135247.95020075,-3.107969295889237,1.030805440427796,-0.2735901827784024,-0.08223114162683487,-0.00777269946411252,-0.01755913160741329,0.004326581954956055,-0.01527658104896545,0.03138309717178345,XArbitraryZVertical,-0.4862171407899754,-0.1268454250340591,0.8629741589420052,0.05271428304045175,0.8258125185966492,0.2701898217201233,-0.495006263256073,0,0,0,-1,-1,135246.703772875,unknown,2,2026-03-30T14:38:29.892-05:00,2026-03-30T10:54:16.334-05:00,3730,1.346119,0,0,2516.999,4,4,2026-03-30T14:36:34.095-05:00,796592309.9549677,0,-0.07999802,99.60163,1,0.9,2026-03-30T14:37:50.703-05:00,72,1.2,2026-03-30T12:48:13.834-05:00,0.1236805929763694
2026-03-30T14:38:31.184-05:00,1774899510.168855,30.28879566524293,-97.73755011331893,158.8484,1.758698,1.677888,-1,-1,89.55466461181641,25.30590731270198,-9999,135247.99291975,0.8204345703125,0.28131103515625,-0.4319610595703125,135247.98035575,-3.106257137678204,1.03062777758169,-0.2752315566911965,-0.06752698868513107,-0.03908337280154228,-0.01509827375411987,0.002293527126312256,0.005207687616348267,0.06052166223526001,XArbitraryZVertical,-0.4859638977928937,-0.1279725468406437,0.8629715869274064,0.05236648467012774,0.825343132019043,0.271769791841507,-0.4949242472648621,0,0,0,-1,-1,135246.703772875,unknown,2,2026-03-30T14:38:29.892-05:00,2026-03-30T10:54:16.334-05:00,3730,1.346119,0,0,2516.999,4,4,2026-03-30T14:36:34.095-05:00,796592309.9549677,0,-0.07999802,99.60163,1,0.9,2026-03-30T14:37:50.703-05:00,72,1.2,2026-03-30T12:48:13.834-05:00,0.1236805929763694
2026-03-30T14:38:31.219-05:00,1774899511.168855,30.28879727875039,-97.73754573033646,164.067,1.758698,2.430676,-1,-1,132.4922485351562,23.70266576468432,-9999,135248.02684475,0.827484130859375,0.280517578125,-0.4403228759765625,135248.01051175,-3.105285592458572,1.029325691128476,-0.2762956381244502,-0.02474579401314259,-0.06667040288448334,-0.01631374470889568,-0.002535045146942139,0.01285076141357422,0.05088749527931213,XArbitraryZVertical,-0.4852954275945963,-0.1287003916092713,0.8632540443592285,0.05212432824827577,0.8244496583938599,0.2727936506271362,-0.4958491027355194,0,0,0,-1,-1,135246.703772875,unknown,2,2026-03-30T14:38:29.892-05:00,2026-03-30T10:54:16.334-05:00,3730,1.346119,0,0,2516.999,4,4,2026-03-30T14:36:34.095-05:00,796592309.9549677,0,-0.07999802,99.60163,1,0.9,2026-03-30T14:37:50.703-05:00,72,1.2,2026-03-30T12:48:13.834-05:00,0.1236805929763694
2026-03-30T14:38:31.253-05:00,1774899511.168855,30.28879727875039,-97.73754573033646,164.067,1.758698,2.430676,-1,-1,132.4922485351562,23.70266576468432,-9999,135248.06077075,0.82720947265625,0.2879638671875,-0.4346771240234375,135248.04066675,-3.104957304364495,1.02702973649727,-0.2768397523197084,-0.007561258040368557,-0.09289199858903885,-0.007394915446639061,-0.0001533627510070801,0.006376445293426514,0.05875998735427856,XArbitraryZVertical,-0.4842602425440281,-0.1290739655659368,0.8637889167403214,0.05196769648155333,0.8231819272041321,0.2733170986175537,-0.4976638555526733,0,0,0,-1,-1,135246.703772875,unknown,2,2026-03-30T14:38:29.892-05:00,2026-03-30T10:54:16.334-05:00,3730,1.346119,0,0,2516.999,4,4,2026-03-30T14:36:34.095-05:00,796592309.9549677,0,-0.07999802,99.60163,1,0.9,2026-03-30T14:37:50.703-05:00,72,1.2,2026-03-30T12:48:13.834-05:00,0.1236805929763694
2026-03-30T14:38:31.285-05:00,1774899511.168855,30.28879727875039,-97.73754573033646,164.067,1.758698,2.430676,-1,-1,132.4922485351562,23.70266576468432,-9999,135248.09469375,0.807830810546875,0.3212432861328125,-0.4351806640625,135248.07082275,-3.105008244943192,1.023854488760066,-0.276823434658219,0.01901296153664589,-0.1182937771081924,0.01335387397557497,0.0001453757286071777,0.01946890354156494,0.06679046154022217,XArbitraryZVertical,-0.4828922283493175,-0.1291369746418386,0.8645562523739626,0.05178075292531888,0.821601390838623,0.2733013927936554,-0.5002774596214294,0,0,0,-1,-1,135246.703772875,unknown,2,2026-03-30T14:38:29.892-05:00,2026-03-30T10:54:16.334-05:00,3730,1.346119,0,0,2516.999,4,4,2026-03-30T14:36:34.095-05:00,796592309.9549677,0,-0.07999802,99.60163,1,0.9,2026-03-30T14:37:50.703-05:00,72,1.2,2026-03-30T12:48:13.834-05:00,0.1236805929763694
2026-03-30T14:38:31.319-05:00,1774899511.168855,30.28879727875039,-97.73754573033646,164.067,1.758698,2.430676,-1,-1,132.4922485351562,23.70266576468432,-9999,135248.12861975,0.802703857421875,0.3234405517578125,-0.434539794921875,135248.10097775,-3.10592148766388,1.019793565429607,-0.2752875886327247,0.09249758720397949,-0.1340502798557281,0.04288325086236,-0.01379787921905518,0.04916009306907654,0.06907546520233154,XArbitraryZVertical,-0.4812581693857498,-0.1283593006956002,0.8655968468172468,0.05154083560731891,0.8199196457862854,0.2718237042427063,-0.5038289427757263,0,0,0,-1,-1,135246.703772875,unknown,2,2026-03-30T14:38:29.892-05:00,2026-03-30T10:54:16.334-05:00,3730,1.346119,0,0,2516.999,4,4,2026-03-30T14:36:34.095-05:00,796592309.9549677,0,-0.07999802,99.60163,1,0.9,2026-03-30T14:37:50.703-05:00,72,1.2,2026-03-30T12:48:13.834-05:00,0.1236805929763694
2026-03-30T14:38:31.355-05:00,1774899511.168855,30.28879727875039,-97.73754573033646,164.067,1.758698,2.430676,-1,-1,132.4922485351562,23.70266576468432,-9999,135248.1625437917,0.8043212890625,0.289764404296875,-0.5119476318359375,135248.13113375,-3.108061240278544,1.014756569754158,-0.2719265158555427,0.1245770454406738,-0.1629302352666855,0.08974216878414154,-0.01713275909423828,0.05341845750808716,0.06990945339202881,XArbitraryZVertical,-0.4793495718585228,-0.1265230428428991,0.8669375825338288,0.05133257810844089,0.818142831325531,0.2685876488685608,-0.5084317922592163,0,0,0,-1,-1,135246.703772875,unknown,2,2026-03-30T14:38:29.892-05:00,2026-03-30T10:54:16.334-05:00,3730,1.346119,0,0,2516.999,4,4,2026-03-30T14:36:34.095-05:00,796592309.9549677,0,-0.07999802,99.60163,1,0.9,2026-03-30T14:37:50.703-05:00,72,1.2,2026-03-30T12:48:13.834-05:00,0.1236805929763694
2026-03-30T14:38:31.389-05:00,1774899511.168855,30.28879727875039,-97.73754573033646,164.067,1.758698,2.430676,-1,-1,132.4922485351562,23.70266576468432,-9999,135248.1964687917,0.838836669921875,0.1979827880859375,-0.5722198486328125,135248.1914427917,-3.115975675334843,1.003093166370814,-0.2627486304718733,0.1865480095148087,-0.1507955342531204,0.02864978462457657,0.01180249452590942,-0.04574665427207947,-0.04710233211517334,XArbitraryZVertical,-0.4751289370854879,-0.1209586240957861,0.870019516560783,0.05184182145873355,0.8142014741897583,0.2597358226776123,-0.5192430019378662,0,0,0,-1,-1,135246.703772875,unknown,2,2026-03-30T14:38:29.892-05:00,2026-03-30T10:54:16.334-05:00,3730,1.346119,0,0,2516.999,4,4,2026-03-30T14:36:34.095-05:00,796592309.9549677,0,-0.07999802,99.60163,1,0.9,2026-03-30T14:37:50.703-05:00,72,1.2,2026-03-30T12:48:13.834-05:00,0.1236805929763694
2026-03-30T14:38:31.420-05:00,1774899511.168855,30.28879727875039,-97.73754573033646,164.067,1.758698,2.430676,-1,-1,132.4922485351562,23.70266576468432,-9999,135248.2303927917,0.8448333740234375,0.1550140380859375,-0.57171630859375,135248.2215987917,-3.119309435427976,0.9980058165579077,-0.2605030448875408,0.07150153815746307,-0.1310483366250992,-0.01704782247543335,0.04144757986068726,-0.09614402055740356,-0.05441665649414062,XArbitraryZVertical,-0.4731965102017466,-0.1193250263057648,0.8712608375437446,0.05245200576661946,0.8120375275611877,0.2575666606426239,-0.5236932039260864,0,0,0,-1,-1,135246.703772875,unknown,2,2026-03-30T14:38:29.892-05:00,2026-03-30T10:54:16.334-05:00,3730,1.346119,0,0,2516.999,4,4,2026-03-30T14:36:34.095-05:00,796592309.9549677,0,-0.07999802,99.60163,1,0.9,2026-03-30T14:37:50.703-05:00,72,1.2,2026-03-30T12:48:13.834-05:00,0.1236805929763694
2026-03-30T14:38:31.455-05:00,1774899511.168855,30.28879727875039,-97.73754573033646,164.067,1.758698,2.430676,-1,-1,132.4922485351562,23.70266576468432,-9999,135248.2643177917,0.8350982666015625,0.16552734375,-0.6138153076171875,135248.2517547917,-3.11889550764133,0.9946560371067387,-0.2628496077233789,-0.2116667032241821,-0.09518492221832275,-0.09535174816846848,0.02978426218032837,-0.1360845863819122,-0.05729442834854126,XArbitraryZVertical,-0.4716272271084501,-0.1205317815978161,0.8719347660308078,0.05262804213106534,0.8097696304321289,0.2598333358764648,-0.5260797142982483,0,0,0,-1,-1,135246.703772875,unknown,2,2026-03-30T14:38:29.892-05:00,2026-03-30T10:54:16.334-05:00,3730,1.346119,0,0,2516.999,4,4,2026-03-30T14:36:34.095-05:00,796592309.9549677,0,-0.07999802,99.60163,1,0.9,2026-03-30T14:37:50.703-05:00,72,1.2,2026-03-30T12:48:13.834-05:00,0.1236805929763694
2026-03-30T14:38:31.490-05:00,1774899511.168855,30.28879727875039,-97.73754573033646,164.067,1.758698,2.430676,-1,-1,132.4922485351562,23.70266576468432,-9999,135248.2982437917,0.8089447021484375,0.2867431640625,-0.7002716064453125,135248.2819097917,-3.113818946270616,0.9944602038966379,-0.2698112135028299,-0.2789286971092224,0.00407102145254612,-0.1050875559449196,0.01486778259277344,-0.02352279424667358,-0.1285536885261536,XArbitraryZVertical,-0.470971847275618,-0.1247623132402975,0.8717283715166881,0.0520538424892092,0.8081303238868713,0.2665494978427887,-0.5252397656440735,0,0,0,-1,-1,135246.703772875,unknown,2,2026-03-30T14:38:29.892-05:00,2026-03-30T10:54:16.334-05:00,3730,1.346119,0,0,2516.999,4,4,2026-03-30T14:36:34.095-05:00,796592309.9549677,0,-0.07999802,99.60163,1,0.9,2026-03-30T14:37:50.703-05:00,72,1.2,2026-03-30T12:48:13.834-05:00,0.1236805929763694
2026-03-30T14:38:31.525-05:00,1774899511.168855,30.28879727875039,-97.73754573033646,164.067,1.758698,2.430676,-1,-1,132.4922485351562,23.70266576468432,-9999,135248.3321687917,0.8224639892578125,0.2878265380859375,-0.7507171630859375,135248.3120657917,-3.109510545130747,0.998087992356864,-0.2766370622495422,-0.1925229430198669,0.1576433777809143,-0.1192674562335014,0.008137345314025879,0.01330053806304932,-0.2111154794692993,XArbitraryZVertical,-0.4720126018403007,-0.1286501846560749,0.8706011435448688,0.05202840601408409,0.8084824681282043,0.2731221318244934,-0.5213064551353455,0,0,0,-1,-1,135246.703772875,unknown,2,2026-03-30T14:38:29.892-05:00,2026-03-30T10:54:16.334-05:00,3730,1.346119,0,0,2516.999,4,4,2026-03-30T14:36:34.095-05:00,796592309.9549677,0,-0.07999802,99.60163,1,0.9,2026-03-30T14:37:50.703-05:00,72,1.2,2026-03-30T12:48:13.834-05:00,0.1236805929763694
2026-03-30T14:38:31.556-05:00,1774899511.168855,30.28879727875039,-97.73754573033646,164.067,1.758698,2.430676,-1,-1,132.4922485351562,23.70266576468432,-9999,135248.3660927917,0.93603515625,0.2758026123046875,-0.6870880126953125,135248.3422207917,-3.106825388782469,1.006152302524969,-0.2826340494349322,-0.1991550624370575,0.334572821855545,-0.1182466372847557,0.03401404619216919,0.003843903541564941,-0.2221238017082214,XArbitraryZVertical,-0.4750996147971361,-0.1316751148630604,0.8684195123103937,0.05281805629306824,0.8112618923187256,0.2788861691951752,-0.5138840675354004,0,0,0,-1,-1,135246.703772875,unknown,2,2026-03-30T14:38:29.892-05:00,2026-03-30T10:54:16.334-05:00,3730,1.346119,0,0,2516.999,4,4,2026-03-30T14:36:34.095-05:00,796592309.9549677,0,-0.07999802,99.60163,1,0.9,2026-03-30T14:37:50.703-05:00,72,1.2,2026-03-30T12:48:13.834-05:00,0.1236805929763694
2026-03-30T14:38:31.591-05:00,1774899511.168855,30.28879727875039,-97.73754573033646,164.067,1.758698,2.430676,-1,-1,132.4922485351562,23.70266576468432,-9999,135248.4000177917,0.9931793212890625,0.3790740966796875,-0.5965576171875,135248.3723767917,-3.100793044505075,1.021596362304223,-0.2889202976894271,-0.3152635991573334,0.5853548049926758,-0.03226317837834358,0.1145849227905273,-0.0001427531242370605,-0.1705295443534851,XArbitraryZVertical,-0.4811191468016882,-0.1354248502060985,0.8645238280989858,0.05275348216922976,0.8175896406173706,0.2849174439907074,-0.5003689527511597,0,0,0,-1,-1,135246.703772875,unknown,2,2026-03-30T14:38:29.892-05:00,2026-03-30T10:54:16.334-05:00,3730,1.346119,0,0,2516.999,4,4,2026-03-30T14:36:34.095-05:00,796592309.9549677,0,-0.07999802,99.60163,1,0.9,2026-03-30T14:37:50.703-05:00,72,1.2,2026-03-30T12:48:13.834-05:00,0.1236805929763694
2026-03-30T14:38:31.626-05:00,1774899511.168855,30.28879727875039,-97.73754573033646,164.067,1.758698,2.430676,-1,-1,132.4922485351562,23.70266576468432,-9999,135248.4339437917,1.005859375,0.4208221435546875,-0.441802978515625,135248.4025317917,-3.091973034601642,1.045891003685901,-0.2920918149780297,-0.2395688891410828,0.8348655104637146,0.09982211887836456,0.1767604947090149,0.08869177103042603,-0.1056053936481476,XArbitraryZVertical,-0.4908375949797633,-0.1382967323669919,0.8586680279398817,0.05139592252851317,0.8287173509597778,0.2879560589790344,-0.4799049496650696,0,0,0,-1,-1,135246.703772875,unknown,2,2026-03-30T14:38:29.892-05:00,2026-03-30T10:54:16.334-05:00,3730,1.346119,0,0,2516.999,4,4,2026-03-30T14:36:34.095-05:00,796592309.9549677,0,-0.07999802,99.60163,1,0.9,2026-03-30T14:37:50.703-05:00,72,1.2,2026-03-30T12:48:13.834-05:00,0.1236805929763694
2026-03-30T14:38:31.661-05:00,1774899511.168855,30.28879727875039,-97.73754573033646,164.067,1.758698,2.430676,-1,-1,132.4922485351562,23.70266576468432,-9999,135248.4678687917,0.8726654052734375,0.4968109130859375,-0.253631591796875,135248.4628427917,-3.081542072824298,1.106823649877306,-0.2816179284019808,0.211547926068306,1.036313891410828,0.3786161839962006,0.04220700263977051,0.2187480628490448,0.1492817997932434,XArbitraryZVertical,-0.5165720227562505,-0.1349645539916735,0.8441511742523683,0.04844361424397312,0.8590534329414368,0.2779102027416229,-0.4298758208751678,0,0,0,-1,-1,135246.703772875,unknown,2,2026-03-30T14:38:29.892-05:00,2026-03-30T10:54:16.334-05:00,3730,1.346119,0,0,2516.999,4,4,2026-03-30T14:36:34.095-05:00,796592309.9549677,0,-0.07999802,99.60163,1,0.9,2026-03-30T14:37:50.703-05:00,72,1.2,2026-03-30T12:48:13.834-05:00,0.1236805929763694
2026-03-30T14:38:31.691-05:00,1774899511.168855,30.28879727875039,-97.73754573033646,164.067,1.758698,2.430676,-1,-1,132.4922485351562,23.70266576468432,-9999,135248.5017917917,0.731414794921875,0.3312835693359375,-0.2032012939453125,135248.4929987917,-3.087857562062128,1.133968862387025,-0.2668479957211416,0.4986297786235809,0.8330220580101013,0.3199329972267151,-0.1659752130508423,0.1089119911193848,0.1816833019256592,XArbitraryZVertical,-0.5291105980389399,-0.1264726138579057,0.837645087271561,0.04896327872862444,0.874028742313385,0.263692319393158,-0.4080933034420013,0,0,0,-1,-1,135246.703772875,unknown,2,2026-03-30T14:38:29.892-05:00,2026-03-30T10:54:16.334-05:00,3730,1.346119,0,0,2516.999,4,4,2026-03-30T14:36:34.095-05:00,796592309.9549677,0,-0.07999802,99.60163,1,0.9,2026-03-30T14:37:50.703-05:00,72,1.2,2026-03-30T12:48:13.834-05:00,0.1236805929763694
2026-03-30T14:38:31.727-05:00,1774899511.168855,30.28879727875039,-97.73754573033646,164.067,1.758698,2.430676,-1,-1,132.4922485351562,23.70266576468432,-9999,135248.5357177917,0.7171173095703125,0.3350677490234375,-0.3326873779296875,135248.5231537917,-3.09406144567203,1.154699823274747,-0.2546962759543397,0.2065660804510117,0.7252824902534485,0.2409873008728027,-0.1325416564941406,-0.001951545476913452,0.1754554510116577,XArbitraryZVertical,-0.538703754513277,-0.1192534417130848,0.8325392507758997,0.04954963828774919,0.8851661086082458,0.2519514858722687,-0.3911537528038025,0,0,0,-1,-1,135246.703772875,unknown,2,2026-03-30T14:38:29.892-05:00,2026-03-30T10:54:16.334-05:00,3730,1.346119,0,0,2516.999,4,4,2026-03-30T14:36:34.095-05:00,796592309.9549677,0,-0.07999802,99.60163,1,0.9,2026-03-30T14:37:50.703-05:00,72,1.2,2026-03-30T12:48:13.834-05:00,0.1236805929763694
2026-03-30T14:38:31.762-05:00,1774899511.168855,30.28879727875039,-97.73754573033646,164.067,1.758698,2.430676,-1,-1,132.4922485351562,23.70266576468432,-9999,135248.5696427917,0.7733612060546875,0.370269775390625,-0.4442901611328125,135248.5533097917,-3.096637904535949,1.182922551910063,-0.2476791869604366,0.07514718174934387,1.189743518829346,0.07007845491170883,-0.135137140750885,0.1081320345401764,-0.07689386606216431,XArbitraryZVertical,-0.5508601643529568,-0.1149498830274559,0.8251093174730314,0.05034144320366834,0.897466242313385,0.2451546341180801,-0.3666792213916779,0,0,0,-1,-1,135246.703772875,unknown,2,2026-03-30T14:38:29.892-05:00,2026-03-30T10:54:16.334-05:00,3730,1.346119,0,0,2516.999,4,4,2026-03-30T14:36:34.095-05:00,796592309.9549677,0,-0.07999802,99.60163,1,0.9,2026-03-30T14:37:50.703-05:00,72,1.2,2026-03-30T12:48:13.834-05:00,0.1236805929763694
2026-03-30T14:38:31.796-05:00,1774899511.168855,30.28879727875039,-97.73754573033646,164.067,1.758698,2.430676,-1,-1,132.4922485351562,23.70266576468432,-9999,135248.6035687917,0.90167236328125,0.3990020751953125,-0.307464599609375,135248.5834647917,-3.091295687984593,1.227755612931612,-0.2493327464018961,-0.4470368325710297,1.678636789321899,-0.08108457177877426,-0.133516788482666,0.07434849441051483,-0.07169285416603088,XArbitraryZVertical,-0.5688344625818169,-0.1159815682761658,0.8126211850254422,0.0512093050371441,0.912615180015564,0.2467573881149292,-0.3259512484073639,0,0,0,-1,-1,135246.703772875,unknown,2,2026-03-30T14:38:29.892-05:00,2026-03-30T10:54:16.334-05:00,3730,1.346119,0,0,2516.999,4,4,2026-03-30T14:36:34.095-05:00,796592309.9549677,0,-0.07999802,99.60163,1,0.9,2026-03-30T14:37:50.703-05:00,72,1.2,2026-03-30T12:48:13.834-05:00,0.1236805929763694
2026-03-30T14:38:31.828-05:00,1774899511.168855,30.28879727875039,-97.73754573033646,164.067,1.758698,2.430676,-1,-1,132.4922485351562,23.70266576468432,-9999,135248.6374917917,0.8712158203125,0.63360595703125,-0.1776275634765625,135248.6136207917,-3.075153579452986,1.285708465418557,-0.2602008979972639,-0.6455842852592468,1.860704302787781,-0.2567702829837799,-0.0435602068901062,0.2232244908809662,0.01091033220291138,XArbitraryZVertical,-0.5906393208327708,-0.1235226321743526,0.7957690587503868,0.0513712115789003,0.9273339509963989,0.2572746872901917,-0.2717747092247009,0,0,0,-1,-1,135246.703772875,unknown,2,2026-03-30T14:38:29.892-05:00,2026-03-30T10:54:16.334-05:00,3730,1.346119,0,0,2516.999,4,4,2026-03-30T14:36:34.095-05:00,796592309.9549677,0,-0.07999802,99.60163,1,0.9,2026-03-30T14:37:50.703-05:00,72,1.2,2026-03-30T12:48:13.834-05:00,0.1236805929763694
2026-03-30T14:38:31.862-05:00,1774899511.168855,30.28879727875039,-97.73754573033646,164.067,1.758698,2.430676,-1,-1,132.4922485351562,23.70266576468432,-9999,135248.6714177917,0.8478546142578125,0.71270751953125,-0.033111572265625,135248.6437757917,-3.06259088672413,1.347987429697816,-0.2719589924976806,-0.3024688363075256,2.023368835449219,-0.2842408716678619,-0.07693260908126831,0.375973254442215,0.05261589586734772,XArbitraryZVertical,-0.6136851015850936,-0.1302548785801832,0.7768600807659344,0.05396848682385758,0.939435601234436,0.2686189413070679,-0.2128485292196274,0,0,0,-1,-1,135246.703772875,unknown,2,2026-03-30T14:38:29.892-05:00,2026-03-30T10:54:16.334-05:00,3730,1.346119,0,0,2516.999,4,4,2026-03-30T14:36:34.095-05:00,796592309.9549677,0,-0.07999802,99.60163,1,0.9,2026-03-30T14:37:50.703-05:00,72,1.2,2026-03-30T12:48:13.834-05:00,0.1236805929763694
2026-03-30T14:38:31.898-05:00,1774899511.168855,30.28879727875039,-97.73754573033646,164.067,1.758698,2.430676,-1,-1,132.4922485351562,23.70266576468432,-9999,135248.7053427917,0.830718994140625,0.76715087890625,0.033660888671875,135248.6739317917,-3.06284046115197,1.407414484459199,-0.2805943626734117,0.2914101779460907,1.901767492294312,-0.2718349099159241,-0.1034291982650757,0.4480791985988617,0.1302477866411209,XArbitraryZVertical,-0.6359973532712117,-0.1317575764199668,0.7579338483920517,0.06069188880878836,0.9480946063995361,0.2769268155097961,-0.1562946140766144,0,0,0,-1,-1,135246.703772875,unknown,2,2026-03-30T14:38:29.892-05:00,2026-03-30T10:54:16.334-05:00,3730,1.346119,0,0,2516.999,4,4,2026-03-30T14:36:34.095-05:00,796592309.9549677,0,-0.07999802,99.60163,1,0.9,2026-03-30T14:37:50.703-05:00,72,1.2,2026-03-30T12:48:13.834-05:00,0.1236805929763694
2026-03-30T14:38:31.932-05:00,1774899511.168855,30.28879727875039,-97.73754573033646,164.067,1.758698,2.430676,-1,-1,132.4922485351562,23.70266576468432,-9999,135248.7392687917,0.8570556640625,0.67462158203125,0.087127685546875,135248.7342427917,-3.127389812255267,1.491691016456395,-0.2913965241163851,1.531404137611389,1.414953827857971,-0.3345277011394501,-0.09608358144760132,0.3878501355648041,0.1653673052787781,XArbitraryZVertical,-0.6706290290205542,-0.1114044348574379,0.7274133533069963,0.09335713488653496,0.9548482298851013,0.2872901558876038,-0.07569151371717453,0,0,0,-1,-1,135246.703772875,unknown,2,2026-03-30T14:38:29.892-05:00,2026-03-30T10:54:16.334-05:00,3730,1.346119,0,0,2516.999,4,4,2026-03-30T14:36:34.095-05:00,796592309.9549677,0,-0.07999802,99.60163,1,0.9,2026-03-30T14:37:50.703-05:00,72,1.2,2026-03-30T12:48:13.834-05:00,0.1236805929763694
2026-03-30T14:38:31.962-05:00,1774899511.168855,30.28879727875039,-97.73754573033646,164.067,1.758698,2.430676,-1,-1,132.4922485351562,23.70266576468432,-9999,135248.7731917917,0.9304656982421875,0.4983978271484375,0.062896728515625,135248.7643977917,3.10196807117751,1.51348747651579,-0.2997571987594931,1.730594038963318,1.041911005973816,-0.4483071863651276,-0.04961913824081421,0.2438504993915558,0.1387534141540527,XArbitraryZVertical,-0.680878250055325,-0.09509531092482607,0.7167523669347724,0.1167379503425811,0.9538397192955017,0.2952882349491119,-0.05472338199615479,0,0,0,-1,-1,135246.703772875,unknown,2,2026-03-30T14:38:29.892-05:00,2026-03-30T10:54:16.334-05:00,3730,1.346119,0,0,2516.999,4,4,2026-03-30T14:36:34.095-05:00,796592309.9549677,0,-0.07999802,99.60163,1,0.9,2026-03-30T14:37:50.703-05:00,72,1.2,2026-03-30T12:48:13.834-05:00,0.1236805929763694
2026-03-30T14:38:31.998-05:00,1774899511.168855,30.28879727875039,-97.73754573033646,164.067,1.758698,2.430676,-1,-1,132.4922485351562,23.70266576468432,-9999,135248.8071167917,0.8532562255859375,0.4840087890625,-0.036834716796875,135248.7945537917,3.044466210807734,1.522904148547366,-0.3116813955417844,1.919981122016907,0.7732095718383789,-0.5120584964752197,-0.04904031753540039,0.1994592249393463,0.06108534708619118,XArbitraryZVertical,-0.6862619100321553,-0.07912618954009004,0.7090213057583029,0.1416770642491338,0.9507278800010681,0.306659460067749,-0.04556727409362793,0,0,0,-1,-1,135246.703772875,unknown,2,2026-03-30T14:38:29.892-05:00,2026-03-30T10:54:16.334-05:00,3730,1.346119,0,0,2516.999,4,4,2026-03-30T14:36:34.095-05:00,796592309.9549677,0,-0.07999802,99.60163,1,0.9,2026-03-30T14:37:50.703-05:00,72,1.2,2026-03-30T12:48:13.834-05:00,0.1236805929763694
2026-03-30T14:38:32.033-05:00,1774899511.168855,30.28879727875039,-97.73754573033646,164.067,1.758698,2.430676,-1,-1,132.4922485351562,23.70266576468432,-9999,135248.8410427917,0.8372039794921875,0.357513427734375,-0.0254669189453125,135248.8247087917,2.978525139744379,1.522710573812309,-0.3246112563028249,2.121558904647827,0.5660954713821411,-0.5254560112953186,-0.07450211048126221,0.06954830884933472,0.01384902000427246,XArbitraryZVertical,-0.6881013458537327,-0.06113989891506325,0.7029347538866673,0.1692960276148909,0.9466792345046997,0.3189403712749481,-0.04555690288543701,0,0,0,-1,-1,135246.703772875,unknown,2,2026-03-30T14:38:29.892-05:00,2026-03-30T10:54:16.334-05:00,3730,1.346119,0,0,2516.999,4,4,2026-03-30T14:36:34.095-05:00,796592309.9549677,0,-0.07999802,99.60163,1,0.9,2026-03-30T14:37:50.703-05:00,72,1.2,2026-03-30T12:48:13.834-05:00,0.1236805929763694
2026-03-30T14:38:32.068-05:00,1774899511.168855,30.28879727875039,-97.73754573033646,164.067,1.758698,2.430676,-1,-1,132.4922485351562,23.70266576468432,-9999,135248.8749677917,0.8089141845703125,0.3232574462890625,-0.0637969970703125,135248.8548647917,2.906534352525653,1.514665005722847,-0.3359021502107939,2.411929845809937,0.4902395606040955,-0.4413177669048309,-0.136840283870697,0.03883284330368042,0.0143006443977356,XArbitraryZVertical,-0.6868902865393068,-0.04121264231000941,0.6980381147870969,0.1980556800516284,0.942626416683197,0.3296210467815399,-0.05296650528907776,0,0,0,-1,-1,135246.703772875,unknown,2,2026-03-30T14:38:29.892-05:00,2026-03-30T10:54:16.334-05:00,3730,1.346119,0,0,2516.999,4,4,2026-03-30T14:36:34.095-05:00,796592309.9549677,0,-0.07999802,99.60163,1,0.9,2026-03-30T14:37:50.703-05:00,72,1.2,2026-03-30T12:48:13.834-05:00,0.1236805929763694
2026-03-30T14:38:32.099-05:00,1774899511.168855,30.28879727875039,-97.73754573033646,164.067,1.758698,2.430676,-1,-1,132.4922485351562,23.70266576468432,-9999,135248.9088917917,0.782073974609375,0.2233734130859375,-0.03131103515625,135248.8850197917,2.824098509869911,1.500710875705703,-0.3418236731488056,2.725085258483887,0.4097912013530731,-0.2531093657016754,-0.1509831547737122,-0.03776633739471436,0.02938598394393921,XArbitraryZVertical,-0.6831805022928493,-0.01661609470728068,0.6933924249773112,0.2284629490678572,0.9398320317268372,0.3352058231830597,-0.06597661226987839,0,0,0,-1,-1,135246.703772875,unknown,2,2026-03-30T14:38:29.892-05:00,2026-03-30T10:54:16.334-05:00,3730,1.346119,0,0,2516.999,4,4,2026-03-30T14:36:34.095-05:00,796592309.9549677,0,-0.07999802,99.60163,1,0.9,2026-03-30T14:37:50.703-05:00,72,1.2,2026-03-30T12:48:13.834-05:00,0.1236805929763694
2026-03-30T14:38:32.142-05:00,1774899511.168855,30.28879727875039,-97.73754573033646,164.067,1.758698,2.430676,-1,-1,132.4922485351562,23.70266576468432,-9999,135248.9428167917,0.792083740234375,0.0458526611328125,0.0232696533203125,135248.9151757917,2.72905396516943,1.480251079932239,-0.3390402710899349,3.202924251556396,0.3492749631404877,-0.03644720837473869,-0.1580067873001099,-0.1265428364276886,0.06575817614793777,XArbitraryZVertical,-0.6761368183742859,0.01420830249602161,0.6890695732167139,0.2604230076605822,0.9392109513282776,0.3325821459293365,-0.08527425676584244,0,0,0,-1,-1,135246.703772875,unknown,2,2026-03-30T14:38:29.892-05:00,2026-03-30T10:54:16.334-05:00,3730,1.346119,0,0,2516.999,4,4,2026-03-30T14:36:34.095-05:00,796592309.9549677,0,-0.07999802,99.60163,1,0.9,2026-03-30T14:37:50.703-05:00,72,1.2,2026-03-30T12:48:13.834-05:00,0.1236805929763694
2026-03-30T14:38:32.169-05:00,1774899511.168855,30.28879727875039,-97.73754573033646,164.067,1.758698,2.430676,-1,-1,132.4922485351562,23.70266576468432,-9999,135248.9767427917,0.773040771484375,-0.2473602294921875,0.04669189453125,135248.9453307917,2.623053748723153,1.455275480133936,-0.3266718142523949,3.410188913345337,0.3251073360443115,0.1634359210729599,-0.145346999168396,-0.294403463602066,0.1335671544075012,XArbitraryZVertical,-0.6654527683536006,0.0508764352108046,0.6844548839992627,0.2934377183289442,0.9408029317855835,0.3208926320075989,-0.1091684028506279,0,0,0,-1,-1,135246.703772875,unknown,2,2026-03-30T14:38:29.892-05:00,2026-03-30T10:54:16.334-05:00,3730,1.346119,0,0,2516.999,4,4,2026-03-30T14:36:34.095-05:00,796592309.9549677,0,-0.07999802,99.60163,1,0.9,2026-03-30T14:37:50.703-05:00,72,1.2,2026-03-30T12:48:13.834-05:00,0.1236805929763694
2026-03-30T14:38:32.203-05:00,1774899511.168855,30.28879727875039,-97.73754573033646,164.067,1.758698,2.430676,-1,-1,132.4922485351562,23.70266576468432,-9999,135249.0106677917,0.7419281005859375,-0.4859771728515625,-0.0020599365234375,135249.0056417917,2.446196031073166,1.428380675558314,-0.2832005826056557,1.866210341453552,0.9516019821166992,0.5728990435600281,-0.1954557299613953,-0.7607535123825073,0.1527756005525589,XArbitraryZVertical,-0.6459822941392338,0.1206914846755219,0.6717993486648322,0.3417981350044467,0.9504452347755432,0.2794301509857178,-0.1362808793783188,0,0,0,-1,-1,135246.703772875,unknown,2,2026-03-30T14:38:29.892-05:00,2026-03-30T10:54:16.334-05:00,3730,1.346119,0,0,2516.999,4,4,2026-03-30T14:36:34.095-05:00,796592309.9549677,0,-0.07999802,99.60163,1,0.9,2026-03-30T14:37:50.703-05:00,72,1.2,2026-03-30T12:48:13.834-05:00,0.1236805929763694
2026-03-30T14:38:32.234-05:00,1774899512.168855,30.28878951274772,-97.73761973181649,173.1062,0,0.9544728,-1,-1,30.68168640136719,12.29805810979592,-9999,135249.0445917917,0.5967254638671875,-0.4152069091796875,-0.06207275390625,135249.0357977917,2.411517837257948,1.470823943662699,-0.2545292327976812,0.6246123313903809,2.393973112106323,1.001215934753418,-0.3633860945701599,-0.686604380607605,-0.0152565985918045,XArbitraryZVertical,-0.6552187283500147,0.149643647085514,0.6566943804184743,0.3421224862565594,0.962949812412262,0.2517898380756378,-0.09659039229154587,0,0,0,-1,-1,135246.703772875,unknown,2,2026-03-30T14:38:29.892-05:00,2026-03-30T10:54:16.334-05:00,3730,1.346119,0,0,2516.999,4,4,2026-03-30T14:36:34.095-05:00,796592309.9549677,0,-0.07999802,99.60163,1,0.9,2026-03-30T14:37:50.703-05:00,72,1.2,2026-03-30T12:48:13.834-05:00,0.1236805929763694
2026-03-30T14:38:32.269-05:00,1774899512.168855,30.28878951274772,-97.73761973181649,173.1062,0,0.9544728,-1,-1,30.68168640136719,12.29805810979592,-9999,135249.0785167917,2.434844970703125,0.994476318359375,0.0409698486328125,135249.0659527917,2.411192652259611,1.524471492872685,-0.2287412209967057,-0.5832387804985046,-0.5472887754440308,-0.1315187066793442,-0.04560059309005737,-0.4402070045471191,0.2991760969161987,XArbitraryZVertical,-0.6702660607048495,0.1679058660571859,0.6430363433988179,0.3302351757527167,0.9729077219963074,0.2267517149448395,-0.04510205611586571,0,0,0,-1,-1,135246.703772875,unknown,2,2026-03-30T14:38:29.892-05:00,2026-03-30T10:54:16.334-05:00,3730,1.346119,0,0,2516.999,4,4,2026-03-30T14:36:34.095-05:00,796592309.9549677,0,-0.07999802,99.60163,1,0.9,2026-03-30T14:37:50.703-05:00,72,1.2,2026-03-30T12:48:13.834-05:00,0.1236805929763694
2026-03-30T14:38:32.304-05:00,1774899512.168855,30.28878951274772,-97.73761973181649,173.1062,0,0.9544728,-1,-1,30.68168640136719,12.29805810979592,-9999,135249.1124427917,0.1555023193359375,0.166168212890625,-0.442626953125,135249.0961087917,2.425396110801499,1.534048930122968,-0.2248981655380883,-1.148025870323181,2.69880747795105,1.287173390388489,1.093147754669189,1.46331787109375,-2.312635898590088,XArbitraryZVertical,-0.6741838970159671,0.1660394983940122,0.6427536029803945,0.3236891795644553,0.9741586446762085,0.2230070978403091,-0.03581391647458076,0,0,0,-1,-1,135246.703772875,unknown,2,2026-03-30T14:38:29.892-05:00,2026-03-30T10:54:16.334-05:00,3730,1.346119,0,0,2516.999,4,4,2026-03-30T14:36:34.095-05:00,796592309.9549677,0,-0.07999802,99.60163,1,0.9,2026-03-30T14:37:50.703-05:00,72,1.2,2026-03-30T12:48:13.834-05:00,0.1236805929763694
2026-03-30T14:38:32.339-05:00,1774899512.168855,30.28878951274772,-97.73761973181649,173.1062,0,0.9544728,-1,-1,30.68168640136719,12.29805810979592,-9999,135249.1463677917,0.9490203857421875,-0.31268310546875,-0.51806640625,135249.1262637917,2.442580527352799,1.598601043055403,-0.2016685003719502,0.2060624063014984,1.79106616973877,0.7510332465171814,0.4761655330657959,0.851636528968811,0.2652274370193481,XArbitraryZVertical,-0.6941401234095627,0.1782928593710533,0.6270182790789253,0.3053346466824452,0.9793550372123718,0.2003042995929718,0.02723770961165428,0,0,0,-1,-1,135246.703772875,unknown,2,2026-03-30T14:38:29.892-05:00,2026-03-30T10:54:16.334-05:00,3730,1.346119,0,0,2516.999,4,4,2026-03-30T14:36:34.095-05:00,796592309.9549677,0,-0.07999802,99.60163,1,0.9,2026-03-30T14:37:50.703-05:00,72,1.2,2026-03-30T12:48:13.834-05:00,0.1236805929763694
2026-03-30T14:38:32.370-05:00,1774899512.168855,30.28878951274772,-97.73761973181649,173.1062,0,0.9544728,-1,-1,30.68168640136719,12.29805810979592,-9999,135249.1802915417,0.55950927734375,-0.274322509765625,0.2283782958984375,135249.1564205417,2.423090475694365,1.651331089884427,-0.1662137340227058,0.7316620349884033,1.962607264518738,0.9864777326583862,0.4957074522972107,-0.5377335548400879,-0.6641168594360352,XArbitraryZVertical,-0.705491436938659,0.2048202615344983,0.6111387836214212,0.2946858377371382,0.98302161693573,0.1654494553804398,0.07933901250362396,0,0,0,-1,-1,135246.703772875,unknown,2,2026-03-30T14:38:29.892-05:00,2026-03-30T10:54:16.334-05:00,3730,1.346119,0,0,2516.999,4,4,2026-03-30T14:36:34.095-05:00,796592309.9549677,0,-0.07999802,99.60163,1,0.9,2026-03-30T14:37:50.703-05:00,72,1.2,2026-03-30T12:48:13.834-05:00,0.1236805929763694
2026-03-30T14:38:32.405-05:00,1774899512.168855,30.28878951274772,-97.73761973181649,173.1062,0,0.9544728,-1,-1,30.68168640136719,12.29805810979592,-9999,135249.2142175417,0.796661376953125,0.228515625,0.6514892578125,135249.1865755417,2.416573246451813,1.700092172327672,-0.1432411838363779,-0.2648119330406189,1.545523881912231,0.7252944111824036,-0.2659512758255005,-0.2938139736652374,0.1282439082860947,XArbitraryZVertical,-0.7174292376783452,0.2215919236588392,0.5964106575165379,0.2837014415766336,0.9814968109130859,0.1427518427371979,0.1276153773069382,0,0,0,-1,-1,135246.703772875,unknown,2,2026-03-30T14:38:29.892-05:00,2026-03-30T10:54:16.334-05:00,3730,1.346119,0,0,2516.999,4,4,2026-03-30T14:36:34.095-05:00,796592309.9549677,0,-0.07999802,99.60163,1,0.9,2026-03-30T14:37:50.703-05:00,72,1.2,2026-03-30T12:48:13.834-05:00,0.1236805929763694
2026-03-30T14:38:32.440-05:00,1774899512.168855,30.28878951274772,-97.73761973181649,173.1062,0,0.9544728,-1,-1,30.68168640136719,12.29805810979592,-9999,135249.2481425417,0.8473968505859375,0.198760986328125,0.489471435546875,135249.2167315417,2.424748690098862,1.746711143705454,-0.121452922982869,-0.5107594132423401,1.343317747116089,0.740140438079834,-0.248386561870575,0.1065522506833076,0.4949508905410767,XArbitraryZVertical,-0.7301295711574236,0.2318850410019374,0.5840167947222235,0.2684482913555041,0.9773141741752625,0.1211545541882515,0.1737197190523148,0,0,0,-1,-1,135246.703772875,unknown,2,2026-03-30T14:38:29.892-05:00,2026-03-30T10:54:16.334-05:00,3730,1.346119,0,0,2516.999,4,4,2026-03-30T14:36:34.095-05:00,796592309.9549677,0,-0.07999802,99.60163,1,0.9,2026-03-30T14:37:50.703-05:00,72,1.2,2026-03-30T12:48:13.834-05:00,0.1236805929763694
2026-03-30T14:38:32.475-05:00,1774899512.168855,30.28878951274772,-97.73761973181649,173.1062,0,0.9544728,-1,-1,30.68168640136719,12.29805810979592,-9999,135249.2820685417,0.97576904296875,-0.1344146728515625,0.4292144775390625,135249.2770425417,2.417177283467965,1.82210993342231,-0.07984906753424412,-0.2227653414011002,1.114445447921753,0.6178081035614014,0.06027162075042725,-0.280966728925705,0.2093758881092072,XArbitraryZVertical,-0.7469629695740341,0.2568821198307628,0.5615129666954954,0.2464978457529745,0.9655005931854248,0.07976424694061279,0.2478841990232468,0,0,0,-1,-1,135246.703772875,unknown,2,2026-03-30T14:38:29.892-05:00,2026-03-30T10:54:16.334-05:00,3730,1.346119,0,0,2516.999,4,4,2026-03-30T14:36:34.095-05:00,796592309.9549677,0,-0.07999802,99.60163,1,0.9,2026-03-30T14:37:50.703-05:00,72,1.2,2026-03-30T12:48:13.834-05:00,0.1236805929763694
2026-03-30T14:38:32.505-05:00,1774899512.168855,30.28878951274772,-97.73761973181649,173.1062,0,0.9544728,-1,-1,30.68168640136719,12.29805810979592,-9999,135249.3159915417,0.9411468505859375,-0.04022216796875,0.42559814453125,135249.3071975417,2.412229887035302,1.853773792395711,-0.0630814477331539,0.05010374635457993,1.012566804885864,0.5517185926437378,-0.03500914573669434,-0.08720964938402176,0.1394455134868622,XArbitraryZVertical,-0.7535413816623786,0.2674054294851055,0.5515736230277679,0.2375630532998345,0.9583184123039246,0.0630396232008934,0.2786605656147003,0,0,0,-1,-1,135246.703772875,unknown,2,2026-03-30T14:38:29.892-05:00,2026-03-30T10:54:16.334-05:00,3730,1.346119,0,0,2516.999,4,4,2026-03-30T14:36:34.095-05:00,796592309.9549677,0,-0.07999802,99.60163,1,0.9,2026-03-30T14:37:50.703-05:00,72,1.2,2026-03-30T12:48:13.834-05:00,0.1236805929763694
2026-03-30T14:38:32.541-05:00,1774899512.168855,30.28878951274772,-97.73761973181649,173.1062,0,0.9544728,-1,-1,30.68168640136719,12.29805810979592,-9999,135249.3499175417,0.9364471435546875,-0.033538818359375,0.42327880859375,135249.3373535417,2.410695173088011,1.882721946408989,-0.04758183749548009,-0.1928159594535828,0.9165014624595642,0.4571768641471863,0.01460379362106323,-0.09295888990163803,0.119831770658493,XArbitraryZVertical,-0.7597697375722594,0.2757212556619166,0.5427857213246835,0.2282790358648692,0.9506670832633972,0.04756388440728188,0.3065445423126221,0,0,0,-1,-1,135246.703772875,unknown,2,2026-03-30T14:38:29.892-05:00,2026-03-30T10:54:16.334-05:00,3730,1.346119,0,0,2516.999,4,4,2026-03-30T14:36:34.095-05:00,796592312.5328714,0,-0.2199974,99.60328,1,0.9,2026-03-30T14:37:50.703-05:00,72,1.2,2026-03-30T12:48:13.834-05:00,0.1236805929763694
2026-03-30T14:38:32.576-05:00,1774899512.168855,30.28878951274772,-97.73761973181649,173.1062,0,0.9544728,-1,-1,30.68168640136719,12.29805810979592,-9999,135249.3838425417,0.965850830078125,-0.0473175048828125,0.45330810546875,135249.3675085417,2.410969095250608,1.908860921701066,-0.03389991163359298,-0.1451347917318344,0.8281112313270569,0.4183991253376007,-0.0148472785949707,-0.06137460842728615,0.1179915368556976,XArbitraryZVertical,-0.7655304988692173,0.2823095578590323,0.5349095825010283,0.2193992237918555,0.9428561925888062,0.03389341756701469,0.3314712643623352,0,0,0,-1,-1,135246.703772875,unknown,2,2026-03-30T14:38:29.892-05:00,2026-03-30T10:54:16.334-05:00,3730,1.346119,0,0,2516.999,4,4,2026-03-30T14:36:34.095-05:00,796592312.5328714,0,-0.2199974,99.60328,1,0.9,2026-03-30T14:37:50.703-05:00,72,1.2,2026-03-30T12:48:13.834-05:00,0.1236805929763694
2026-03-30T14:38:32.611-05:00,1774899512.168855,30.28878951274772,-97.73761973181649,173.1062,0,0.9544728,-1,-1,30.68168640136719,12.29805810979592,-9999,135249.4177685417,0.9512176513671875,0.0696258544921875,0.4308624267578125,135249.3976645417,2.411594568202595,1.932954019658556,-0.02007904936807567,-0.1729127168655396,0.7774084806442261,0.4281193017959595,0.02719688415527344,-0.02943143621087074,0.09351718425750732,XArbitraryZVertical,-0.7706779308766705,0.2883855232645319,0.5277956548240548,0.2105256549949051,0.9349460005760193,0.02007769979536533,0.354221373796463,0,0,0,-1,-1,135246.703772875,unknown,2,2026-03-30T14:38:29.892-05:00,2026-03-30T10:54:16.334-05:00,3730,1.346119,0,0,2516.999,4,4,2026-03-30T14:36:34.095-05:00,796592312.5328714,0,-0.2199974,99.60328,1,0.9,2026-03-30T14:37:50.703-05:00,72,1.2,2026-03-30T12:48:13.834-05:00,0.1236805929763694
2026-03-30T14:38:32.642-05:00,1774899512.168855,30.28878951274772,-97.73761973181649,173.1062,0,0.9544728,-1,-1,30.68168640136719,12.29805810979592,-9999,135249.4516915417,0.9586334228515625,0.040679931640625,0.394805908203125,135249.4278195417,2.411523835062575,1.955925465713708,-0.006298976915292855,-0.1998775899410248,0.7700651288032532,0.4285499751567841,0.03957706689834595,0.05568216741085052,0.04409784078598022,XArbitraryZVertical,-0.7753398111989173,0.2944212674551501,0.5209655420804222,0.2018892885021812,0.9267316460609436,0.006298935040831566,0.3756714165210724,0,0,0,-1,-1,135246.703772875,unknown,2,2026-03-30T14:38:29.892-05:00,2026-03-30T10:54:16.334-05:00,3730,1.346119,0,0,2516.999,4,4,2026-03-30T14:36:34.095-05:00,796592312.5328714,0,-0.2199974,99.60328,1,0.9,2026-03-30T14:37:50.703-05:00,72,1.2,2026-03-30T12:48:13.834-05:00,0.1236805929763694
2026-03-30T14:38:32.676-05:00,1774899512.168855,30.28878951274772,-97.73761973181649,173.1062,0,0.9544728,-1,-1,30.68168640136719,12.29805810979592,-9999,135249.4856175417,0.8932647705078125,0.0118560791015625,0.4091949462890625,135249.4579755417,2.412696712613026,1.978593669683935,0.008032728617485736,-0.2509973645210266,0.7575956583023071,0.4215793609619141,0.04106312990188599,0.03108857199549675,-0.00172385573387146,XArbitraryZVertical,-0.7799630453497242,0.2999088854486546,0.5143934536254976,0.192643545278639,0.9179667830467224,-0.008032642304897308,0.396575391292572,0,0,0,-1,-1,135246.703772875,unknown,2,2026-03-30T14:38:29.892-05:00,2026-03-30T10:54:16.334-05:00,3730,1.346119,0,0,2516.999,4,4,2026-03-30T14:36:34.095-05:00,796592312.5328714,0,-0.2199974,99.60328,1,0.9,2026-03-30T14:37:50.703-05:00,72,1.2,2026-03-30T12:48:13.834-05:00,0.1236805929763694
2026-03-30T14:38:32.712-05:00,1774899512.168855,30.28878951274772,-97.73761973181649,173.1062,0,0.9544728,-1,-1,30.68168640136719,12.29805810979592,-9999,135249.5195425417,0.901641845703125,0.0601806640625,0.369049072265625,135249.4881315417,2.413516735791984,2.001086095244078,0.02228404834961255,-0.2086042314767838,0.7194120287895203,0.4123235940933228,-0.01622426509857178,0.03082703240215778,-0.002510398626327515,XArbitraryZVertical,-0.7844102815843234,0.3053125812311866,0.5077753629701092,0.1834360258696957,0.9086191058158875,-0.02228220365941525,0.4170305132865906,0,0,0,-1,-1,135246.703772875,unknown,2,2026-03-30T14:38:29.892-05:00,2026-03-30T10:54:16.334-05:00,3730,1.346119,0,0,2516.999,4,4,2026-03-30T14:36:34.095-05:00,796592312.5328714,0,-0.2199974,99.60328,1,0.9,2026-03-30T14:37:50.703-05:00,72,1.2,2026-03-30T12:48:13.834-05:00,0.1236805929763694
2026-03-30T14:38:32.746-05:00,1774899512.168855,30.28878951274772,-97.73761973181649,173.1062,0,0.9544728,-1,-1,30.68168640136719,12.29805810979592,-9999,135249.5534675417,0.9556427001953125,0.132537841796875,0.2898406982421875,135249.5484425417,2.395838780240049,2.045578255409482,0.04691322027900061,0.581830620765686,0.8169146180152893,0.6030298471450806,0.06605392694473267,0.1814936846494675,-0.1572183966636658,XArbitraryZVertical,-0.7902399958272865,0.3222445292512538,0.4923463945346523,0.1710972942954583,0.8884139657020569,-0.04689601436257362,0.4566415846347809,0,0,0,-1,-1,135246.703772875,unknown,2,2026-03-30T14:38:29.892-05:00,2026-03-30T10:54:16.334-05:00,3730,1.346119,0,0,2516.999,4,4,2026-03-30T14:36:34.095-05:00,796592312.5328714,0,-0.2199974,99.60328,1,0.9,2026-03-30T14:37:50.703-05:00,72,1.2,2026-03-30T12:48:13.834-05:00,0.1236805929763694
2026-03-30T14:38:32.777-05:00,1774899512.168855,30.28878951274772,-97.73761973181649,173.1062,0,0.9544728,-1,-1,30.68168640136719,12.29805810979592,-9999,135249.5873915417,1.02239990234375,0.1118927001953125,0.2130889892578125,135249.5785975417,2.367676345450234,2.075522098581765,0.05339572744970862,0.8338624238967896,1.066382169723511,0.6717854142189026,0.1209660172462463,0.1240947395563126,-0.2629075646400452,XArbitraryZVertical,-0.7921842793028008,0.3374658712265687,0.4790865466850382,0.1704024975753637,0.8740597367286682,-0.05337035655975342,0.4828782975673676,0,0,0,-1,-1,135246.703772875,unknown,2,2026-03-30T14:38:29.892-05:00,2026-03-30T10:54:16.334-05:00,3730,1.346119,0,0,2516.999,4,4,2026-03-30T14:36:34.095-05:00,796592312.5328714,0,-0.2199974,99.60328,1,0.9,2026-03-30T14:37:50.703-05:00,72,1.2,2026-03-30T12:48:13.834-05:00,0.1236805929763694
2026-03-30T14:38:32.812-05:00,1774899512.168855,30.28878951274772,-97.73761973181649,173.1062,0,0.9544728,-1,-1,30.68168640136719,12.29805810979592,-9999,135249.6213165417,1.038894653320312,0.135009765625,0.1033782958984375,135249.6087535417,2.329231834386163,2.113360811083081,0.05622403931550103,1.255040764808655,1.298078536987305,0.7518311142921448,0.1612164378166199,0.2355003654956818,-0.3494260907173157,XArbitraryZVertical,-0.7941050441148082,0.3565895879687573,0.4612450707539908,0.1717379580473305,0.8550339937210083,-0.05619442090392113,0.5155178904533386,0,0,0,-1,-1,135246.703772875,unknown,2,2026-03-30T14:38:29.892-05:00,2026-03-30T10:54:16.334-05:00,3730,1.346119,0,0,2516.999,4,4,2026-03-30T14:36:34.095-05:00,796592312.5328714,0,-0.2199974,99.60328,1,0.9,2026-03-30T14:37:50.703-05:00,72,1.2,2026-03-30T12:48:13.834-05:00,0.1236805929763694
2026-03-30T14:38:32.847-05:00,1774899512.168855,30.28878951274772,-97.73761973181649,173.1062,0,0.9544728,-1,-1,30.68168640136719,12.29805810979592,-9999,135249.6552425417,1.0093994140625,0.2574462890625,-0.2006988525390625,135249.6389085417,2.283383380581726,2.16199825526235,0.05461345665413455,1.368906140327454,1.801365733146667,0.8010565638542175,0.2170785665512085,0.1904657334089279,-0.6066229939460754,XArbitraryZVertical,-0.7967828250088607,0.3786836223391853,0.4376602222503608,0.1737507359954719,0.8290334343910217,-0.05458631366491318,0.5565283298492432,0,0,0,-1,-1,135246.703772875,unknown,2,2026-03-30T14:38:29.892-05:00,2026-03-30T10:54:16.334-05:00,3730,1.346119,0,0,2516.999,4,4,2026-03-30T14:36:34.095-05:00,796592312.5328714,0,-0.2199974,99.60328,1,0.9,2026-03-30T14:37:50.703-05:00,72,1.2,2026-03-30T12:48:13.834-05:00,0.1236805929763694
2026-03-30T14:38:32.882-05:00,1774899512.168855,30.28878951274772,-97.73761973181649,173.1062,0,0.9544728,-1,-1,30.68168640136719,12.29805810979592,-9999,135249.6891675417,1.115249633789062,0.4266357421875,-0.2294769287109375,135249.6690645417,2.23022199234736,2.232779214958134,0.04823302446531323,1.735580921173096,2.655745267868042,0.9069617390632629,0.1870568990707397,0.3833124935626984,-0.92915278673172,XArbitraryZVertical,-0.8019435355603564,0.4048087893920664,0.4035613829808702,0.1736506702395419,0.7878575325012207,-0.04821432381868362,0.6139671802520752,0,0,0,-1,-1,135246.703772875,unknown,2,2026-03-30T14:38:29.892-05:00,2026-03-30T10:54:16.334-05:00,3730,1.346119,0,0,2516.999,4,4,2026-03-30T14:36:34.095-05:00,796592312.5328714,0,-0.2199974,99.60328,1,0.9,2026-03-30T14:37:50.703-05:00,72,1.2,2026-03-30T12:48:13.834-05:00,0.1236805929763694
2026-03-30T14:38:32.913-05:00,1774899512.168855,30.28878951274772,-97.73761973181649,173.1062,0,0.9544728,-1,-1,30.68168640136719,12.29805810979592,-9999,135249.7230915417,1.528793334960938,0.2746429443359375,-0.264251708984375,135249.6992195417,2.167821350138079,2.316441023057892,0.03229594872742215,2.149770259857178,2.636512517929077,0.9421523809432983,0.4433294534683228,0.46965292096138,-0.9123600125312805,XArbitraryZVertical,-0.8065011431956161,0.4342830022756471,0.3612500235455334,0.1745063582453583,0.7342674136161804,-0.03229033574461937,0.6780916452407837,0,0,0,-1,-1,135246.703772875,unknown,2,2026-03-30T14:38:29.892-05:00,2026-03-30T10:54:16.334-05:00,3730,1.346119,0,0,2516.999,4,4,2026-03-30T14:36:34.095-05:00,796592312.5328714,0,-0.2199974,99.60328,1,0.9,2026-03-30T14:37:50.703-05:00,72,1.2,2026-03-30T12:48:13.834-05:00,0.1236805929763694
2026-03-30T14:38:32.947-05:00,1774899512.168855,30.28878951274772,-97.73761973181649,173.1062,0,0.9544728,-1,-1,30.68168640136719,12.29805810979592,-9999,135249.7570165417,1.589874267578125,-0.078155517578125,0.3470001220703125,135249.7293755417,2.101771818120558,2.403299752859524,0.006546866479031266,2.293026208877563,2.846388101577759,0.736262321472168,0.844718873500824,0.2402808517217636,-1.098016381263733,XArbitraryZVertical,-0.8088094934718608,0.4643581218115697,0.3146571204256483,0.1766054685965632,0.6730117201805115,-0.00654681958258152,0.7396025061607361,0,0,0,-1,-1,135246.703772875,unknown,2,2026-03-30T14:38:29.892-05:00,2026-03-30T10:54:16.334-05:00,3730,1.346119,0,0,2516.999,4,4,2026-03-30T14:36:34.095-05:00,796592312.5328714,0,-0.2199974,99.60328,1,0.9,2026-03-30T14:37:50.703-05:00,72,1.2,2026-03-30T12:48:13.834-05:00,0.1236805929763694
2026-03-30T14:38:32.983-05:00,1774899512.168855,30.28878951274772,-97.73761973181649,173.1062,0,0.9544728,-1,-1,30.68168640136719,12.29805810979592,-9999,135249.7909425417,1.105865478515625,0.368133544921875,1.276565551757812,135249.7595305417,2.047890826057077,2.492415028761136,-0.0180118018111651,1.220170736312866,2.771001815795898,0.7003805637359619,0.9118476510047913,-0.1305750161409378,-0.3500866293907166,XArbitraryZVertical,-0.811024054758724,0.4903733829026614,0.2679604529986538,0.1731219770291001,0.604433536529541,0.01801082864403725,0.7964521646499634,0,0,0,-1,-1,135246.703772875,unknown,2,2026-03-30T14:38:29.892-05:00,2026-03-30T10:54:16.334-05:00,3730,1.346119,0,0,2516.999,4,4,2026-03-30T14:36:34.095-05:00,796592312.5328714,0,-0.2199974,99.60328,1,0.9,2026-03-30T14:37:50.703-05:00,72,1.2,2026-03-30T12:48:13.834-05:00,0.1236805929763694
2026-03-30T14:38:33.018-05:00,1774899512.168855,30.28878951274772,-97.73761973181649,173.1062,0,0.9544728,-1,-1,30.68168640136719,12.29805810979592,-9999,135249.8248675417,0.9034576416015625,-0.02630615234375,1.358123779296875,135249.8198415417,1.995170802884477,2.594131082769042,-0.03914573561736777,0.01762643083930016,0.6697365641593933,0.5300897359848022,0.452319860458374,-0.001202482730150223,0.4601600170135498,XArbitraryZVertical,-0.8115982234009165,0.517595934577553,0.2168548293119238,0.1624092359534697,0.5201227068901062,0.03913573920726776,0.8531944751739502,0,0,0,-1,-1,135246.703772875,unknown,2,2026-03-30T14:38:29.892-05:00,2026-03-30T10:54:16.334-05:00,3730,1.346119,0,0,2516.999,4,4,2026-03-30T14:36:34.095-05:00,796592312.5328714,0,-0.2199974,99.60328,1,0.9,2026-03-30T14:37:50.703-05:00,72,1.2,2026-03-30T12:48:13.834-05:00,0.1236805929763694
2026-03-30T14:38:33.048-05:00,1774899512.168855,30.28878951274772,-97.73761973181649,173.1062,0,0.9544728,-1,-1,30.68168640136719,12.29805810979592,-9999,135249.8587915417,0.5081939697265625,0.6119232177734375,1.300094604492188,135249.8499975417,1.978542656741965,2.601507202534477,-0.02602811598092843,0.5614957213401794,-0.1734674274921417,0.7771032452583313,0.01378160715103149,0.315985232591629,0.5572680830955505,XArbitraryZVertical,-0.8071812379873082,0.5264461518260473,0.2160138890768715,0.1570059650771022,0.5140351057052612,0.02602517791092396,0.8573741912841797,0,0,0,-1,-1,135246.703772875,unknown,2,2026-03-30T14:38:29.892-05:00,2026-03-30T10:54:16.334-05:00,3730,1.346119,0,0,2516.999,4,4,2026-03-30T14:36:34.095-05:00,796592312.5328714,0,-0.2199974,99.60328,1,0.9,2026-03-30T14:37:50.703-05:00,72,1.2,2026-03-30T12:48:13.834-05:00,0.1236805929763694
2026-03-30T14:38:33.084-05:00,1774899512.168855,30.28878951274772,-97.73761973181649,173.1062,0,0.9544728,-1,-1,30.68168640136719,12.29805810979592,-9999,135249.8927165417,0.4015350341796875,0.21588134765625,1.3304443359375,135249.8801525417,1.940461194819291,2.574387145988642,-0.04333256762313428,1.071512579917908,-1.641028046607971,0.9328513741493225,-0.1332237720489502,0.4316869974136353,0.4778205752372742,XArbitraryZVertical,-0.7952994426252178,0.5374064938368263,0.2190449347464497,0.1752493046620567,0.5367728471755981,0.04331900924444199,0.8426138758659363,0,0,0,-1,-1,135246.703772875,unknown,2,2026-03-30T14:38:29.892-05:00,2026-03-30T10:54:16.334-05:00,3730,1.346119,0,0,2516.999,4,4,2026-03-30T14:36:34.095-05:00,796592312.5328714,0,-0.2199974,99.60328,1,0.9,2026-03-30T14:37:50.703-05:00,72,1.2,2026-03-30T12:48:13.834-05:00,0.1236805929763694
2026-03-30T14:38:33.119-05:00,1774899512.168855,30.28878951274772,-97.73761973181649,173.1062,0,0.9544728,-1,-1,30.68168640136719,12.29805810979592,-9999,135249.9266425417,0.334625244140625,0.21759033203125,1.188720703125,135249.9103085417,1.901607418173567,2.504640996990519,-0.03908363236742182,0.4753085970878601,-2.837772846221924,1.143707752227783,-0.2335450649261475,0.05177707225084305,0.5169987082481384,XArbitraryZVertical,-0.7763631187027455,0.5467263399661072,0.2440111445885959,0.1970008076783085,0.5942935943603516,0.03907368332147598,0.8032987713813782,0,0,0,-1,-1,135246.703772875,unknown,2,2026-03-30T14:38:29.892-05:00,2026-03-30T10:54:16.334-05:00,3730,1.346119,0,0,2516.999,4,4,2026-03-30T14:36:34.095-05:00,796592312.5328714,0,-0.2199974,99.60328,1,0.9,2026-03-30T14:37:50.703-05:00,72,1.2,2026-03-30T12:48:13.834-05:00,0.1236805929763694
2026-03-30T14:38:33.155-05:00,1774899512.168855,30.28878951274772,-97.73761973181649,173.1062,0,0.9544728,-1,-1,30.68168640136719,12.29805810979592,-9999,135249.9605675417,0.2967987060546875,0.328704833984375,1.08056640625,135249.9404635417,1.85908065101962,2.403657572157571,-0.03796771919780577,1.207263350486755,-3.683826446533203,1.080361485481262,-0.4167531132698059,0.2628072798252106,0.3665087819099426,XArbitraryZVertical,-0.7513754055000619,0.5523567944288834,0.2783638380558082,0.2298923479707339,0.6722766757011414,0.03795859962701797,0.7393260598182678,0,0,0,-1,-1,135246.703772875,unknown,2,2026-03-30T14:38:29.892-05:00,2026-03-30T10:54:16.334-05:00,3730,1.346119,0,0,2516.999,4,4,2026-03-30T14:36:34.095-05:00,796592312.5328714,0,-0.2199974,99.60328,1,0.9,2026-03-30T14:37:50.703-05:00,72,1.2,2026-03-30T12:48:13.834-05:00,0.1236805929763694
2026-03-30T14:38:33.185-05:00,1774899512.168855,30.28878951274772,-97.73761973181649,173.1062,0,0.9544728,-1,-1,30.68168640136719,12.29805810979592,-9999,135249.9944915417,0.28582763671875,0.36468505859375,0.898162841796875,135249.9706195417,1.808880772755881,2.280054368193393,-0.04648987069170667,1.675665140151978,-4.283725261688232,0.8315883874893188,-0.4646294116973877,0.2935078740119934,0.396109402179718,XArbitraryZVertical,-0.7200732319185684,0.5538755514017965,0.3150998134120068,0.2746424073833498,0.7580252885818481,0.04647312685847282,0.6505671739578247,0,0,0,-1,-1,135246.703772875,unknown,2,2026-03-30T14:38:29.892-05:00,2026-03-30T10:54:16.334-05:00,3730,1.346119,0,0,2516.999,4,4,2026-03-30T14:36:34.095-05:00,796592312.5328714,0,-0.2199974,99.60328,1,0.9,2026-03-30T14:37:50.703-05:00,72,1.2,2026-03-30T12:48:13.834-05:00,0.1236805929763694
2026-03-30T14:38:33.219-05:00,1774899513.168855,30.28879813383251,-97.73762760353613,174.6327,0.6426735,0.5027595,-1,-1,3,9.996178291831027,-9999,135250.0284165417,0.5038299560546875,0.1545562744140625,0.758941650390625,135250.0007745417,1.748796865504268,2.142890763157434,-0.06886299483747395,2.142021894454956,-4.515017986297607,0.374908447265625,-0.531708300113678,0.2611168622970581,0.3315015435218811,XArbitraryZVertical,-0.6836577802489217,0.5501522598610445,0.34775455733802,0.3301684746153056,0.8387761116027832,0.06880858540534973,0.5401109457015991,0,0,0,-1,-1,135246.703772875,unknown,2,2026-03-30T14:38:29.892-05:00,2026-03-30T10:54:16.334-05:00,3730,1.346119,0,0,2516.999,4,4,2026-03-30T14:36:34.095-05:00,796592312.5328714,0,-0.2199974,99.60328,1,0.9,2026-03-30T14:37:50.703-05:00,72,1.2,2026-03-30T12:48:13.834-05:00,0.1236805929763694
2026-03-30T14:38:33.254-05:00,1774899513.168855,30.28879813383251,-97.73762760353613,174.6327,0.6426735,0.5027595,-1,-1,3,9.996178291831027,-9999,135250.0623425417,0.5589752197265625,0.160400390625,0.6596832275390625,135250.0309305417,1.698141278374961,1.998648608015397,-0.09053209903430862,1.193056583404541,-4.768470764160156,-0.0455080159008503,-0.3939564228057861,0.0578305646777153,0.3389788269996643,XArbitraryZVertical,-0.6469132842551727,0.5367610825275477,0.3804519449172913,0.3855478699267966,0.9061329960823059,0.09040848165750504,0.4132185280323029,0,0,0,-1,-1,135246.703772875,unknown,2,2026-03-30T14:38:29.892-05:00,2026-03-30T10:54:16.334-05:00,3730,1.346119,0,0,2516.999,4,4,2026-03-30T14:36:34.095-05:00,796592312.5328714,0,-0.2199974,99.60328,1,0.9,2026-03-30T14:37:50.703-05:00,72,1.2,2026-03-30T12:48:13.834-05:00,0.1236805929763694
2026-03-30T14:38:33.289-05:00,1774899513.168855,30.28879813383251,-97.73762760353613,174.6327,0.6426735,0.5027595,-1,-1,3,9.996178291831027,-9999,135250.0962675417,0.6618194580078125,0.6315155029296875,0.410888671875,135250.0912415417,1.663436591865099,1.720868211091089,-0.1314921392303876,1.908974289894104,-4.202003002166748,-0.8515084385871887,-0.3506776690483093,0.5119069814682007,0.2683159112930298,XArbitraryZVertical,-0.5879716138548382,0.4779107240184399,0.4473745592519868,0.4751281626793097,0.9802247881889343,0.1311135441064835,0.1482185572385788,0,0,0,-1,-1,135246.703772875,unknown,2,2026-03-30T14:38:29.892-05:00,2026-03-30T10:54:16.334-05:00,3730,1.346119,0,0,2516.999,4,4,2026-03-30T14:36:34.095-05:00,796592312.5328714,0,-0.2199974,99.60328,1,0.9,2026-03-30T14:37:50.703-05:00,72,1.2,2026-03-30T12:48:13.834-05:00,0.1236805929763694
2026-03-30T14:38:33.319-05:00,1774899513.168855,30.28879813383251,-97.73762760353613,174.6327,0.6426735,0.5027595,-1,-1,3,9.996178291831027,-9999,135250.1301905417,0.710479736328125,0.316619873046875,0.405792236328125,135250.1213975417,1.598221485387223,1.593167700999726,-0.1610375396676161,2.229863166809082,-3.610371828079224,-0.7056228518486023,-0.2559947967529297,0.2236754447221756,0.4000543355941772,XArbitraryZVertical,-0.5500005439870547,0.4566611889884738,0.4593831339477621,0.5271879371624266,0.9868144989013672,0.1603424102067947,0.0220800805836916,0,0,0,-1,-1,135246.703772875,unknown,2,2026-03-30T14:38:29.892-05:00,2026-03-30T10:54:16.334-05:00,3730,1.346119,0,0,2516.999,4,4,2026-03-30T14:36:34.095-05:00,796592312.5328714,0,-0.2199974,99.60328,1,0.9,2026-03-30T14:37:50.703-05:00,72,1.2,2026-03-30T12:48:13.834-05:00,0.1236805929763694
2026-03-30T14:38:33.355-05:00,1774899513.168855,30.28879813383251,-97.73762760353613,174.6327,0.6426735,0.5027595,-1,-1,3,9.996178291831027,-9999,135250.164116125,0.707550048828125,0.2504730224609375,0.2151031494140625,135250.1515525417,1.532154879339283,1.48176152079666,-0.1774528520221529,2.187623739242554,-2.951502799987793,-0.5661494135856628,-0.2407431602478027,0.06114779412746429,0.3936580419540405,XArbitraryZVertical,-0.5132206144130831,0.4391402398917081,0.4664675917186085,0.5711114905459822,0.980397641658783,0.1765230000019073,-0.08752090483903885,0,0,0,-1,-1,135246.703772875,unknown,2,2026-03-30T14:38:29.892-05:00,2026-03-30T10:54:16.334-05:00,3730,1.346119,0,0,2516.999,4,4,2026-03-30T14:36:34.095-05:00,796592312.5328714,0,-0.2199974,99.60328,1,0.9,2026-03-30T14:37:50.703-05:00,72,1.2,2026-03-30T12:48:13.834-05:00,0.1236805929763694
2026-03-30T14:38:33.390-05:00,1774899513.168855,30.28879813383251,-97.73762760353613,174.6327,0.6426735,0.5027595,-1,-1,3,9.996178291831027,-9999,135250.198041125,0.6581268310546875,-0.093658447265625,0.135711669921875,135250.181708125,1.463276168414875,1.394815939448324,-0.1832817928506616,1.899210572242737,-1.95196807384491,-0.4278172552585602,-0.2626816630363464,-0.06653477251529694,0.3591223955154419,XArbitraryZVertical,-0.4794624598705565,0.4290048664978286,0.4662165709559369,0.6072172266212602,0.9680649638175964,0.1822573691606522,-0.1721411496400833,0,0,0,-1,-1,135246.703772875,unknown,2,2026-03-30T14:38:29.892-05:00,2026-03-30T10:54:16.334-05:00,3730,1.346119,0,0,2516.999,4,4,2026-03-30T14:36:34.095-05:00,796592312.5328714,0,-0.2199974,99.60328,1,0.9,2026-03-30T14:37:50.703-05:00,72,1.2,2026-03-30T12:48:13.834-05:00,0.1236805929763694
2026-03-30T14:38:33.425-05:00,1774899513.168855,30.28879813383251,-97.73762760353613,174.6327,0.6426735,0.5027595,-1,-1,3,9.996178291831027,-9999,135250.231967125,0.5665130615234375,0.08465576171875,-0.018798828125,135250.211863125,1.423512214188,1.346950245330907,-0.1875917263488751,0.7578584551811218,-0.6419710516929626,-0.3479722142219543,-0.3609599471092224,-0.2663732767105103,0.2785423398017883,XArbitraryZVertical,-0.4610270100388118,0.4223868052285102,0.4640746722502551,0.6274376972161035,0.9579447507858276,0.1864934116601944,-0.2180869728326797,0,0,0,-1,-1,135246.703772875,unknown,2,2026-03-30T14:38:29.892-05:00,2026-03-30T10:54:16.334-05:00,3730,1.346119,0,0,2516.999,4,4,2026-03-30T14:36:34.095-05:00,796592312.5328714,0,-0.2199974,99.60328,1,0.9,2026-03-30T14:37:50.703-05:00,72,1.2,2026-03-30T12:48:13.834-05:00,0.1236805929763694
2026-03-30T14:38:33.456-05:00,1774899513.168855,30.28879813383251,-97.73762760353613,174.6327,0.6426735,0.5027595,-1,-1,3,9.996178291831027,-9999,135250.265890125,0.7521209716796875,0.2363433837890625,-0.183074951171875,135250.242019125,1.402495328959174,1.348539098020422,-0.1874197315246224,0.6029119491577148,1.000949740409851,0.07343830168247223,-0.3848502635955811,-0.1056207716464996,0.1894721984863281,XArbitraryZVertical,-0.4568784016509652,0.4277572405345155,0.4571378405225853,0.6319104545674347,0.9583213329315186,0.1863244324922562,-0.2165717333555222,0,0,0,-1,-1,135246.703772875,unknown,2,2026-03-30T14:38:29.892-05:00,2026-03-30T10:54:16.334-05:00,3730,1.346119,0,0,2516.999,4,4,2026-03-30T14:36:34.095-05:00,796592312.5328714,0,-0.2199974,99.60328,1,0.9,2026-03-30T14:37:50.703-05:00,72,1.2,2026-03-30T12:48:13.834-05:00,0.1236805929763694
2026-03-30T14:38:33.490-05:00,1774899513.168855,30.28879813383251,-97.73762760353613,174.6327,0.6426735,0.5027595,-1,-1,3,9.996178291831027,-9999,135250.299816125,1.9705810546875,0.8248748779296875,-1.077713012695312,135250.272174125,1.397704161953486,1.422590262803229,-0.1741091708930758,0.2095723301172256,2.081894636154175,0.0258566290140152,-0.1669556498527527,0.07002471387386322,-0.02923572063446045,XArbitraryZVertical,-0.4688141455154354,0.4555189296180678,0.4420414901549629,0.6142598127168821,0.9740845561027527,0.173230841755867,-0.1454316079616547,0,0,0,-1,-1,135246.703772875,unknown,2,2026-03-30T14:38:29.892-05:00,2026-03-30T10:54:16.334-05:00,3730,1.346119,0,0,2516.999,4,4,2026-03-30T14:36:34.095-05:00,796592312.5328714,0,-0.2199974,99.60328,1,0.9,2026-03-30T14:37:50.703-05:00,72,1.2,2026-03-30T12:48:13.834-05:00,0.1236805929763694
2026-03-30T14:38:33.526-05:00,1774899513.168855,30.28879813383251,-97.73762760353613,174.6327,0.6426735,0.5027595,-1,-1,3,9.996178291831027,-9999,135250.333741125,1.053237915039062,0.083587646484375,0.5183258056640625,135250.302330125,1.378723061119006,1.482247475637894,-0.1535526973147907,0.04011363163590431,2.292518854141235,0.9672592878341675,0.646665096282959,0.2711527347564697,-1.044183850288391,XArbitraryZVertical,-0.4718022980521679,0.4834317574262301,0.4278766429126462,0.6005145625500681,0.984362006187439,0.1529499888420105,-0.087392657995224,0,0,0,-1,-1,135246.703772875,unknown,2,2026-03-30T14:38:29.892-05:00,2026-03-30T10:54:16.334-05:00,3730,1.346119,0,0,2516.999,4,4,2026-03-30T14:36:34.095-05:00,796592312.5328714,0,-0.2199974,99.60328,1,0.9,2026-03-30T14:37:50.703-05:00,72,1.2,2026-03-30T12:48:13.834-05:00,0.1236805929763694
2026-03-30T14:38:33.561-05:00,1774899513.168855,30.28879813383251,-97.73762760353613,174.6327,0.6426735,0.5027595,-1,-1,3,9.996178291831027,-9999,135250.367667125,1.03228759765625,0.201141357421875,0.3610076904296875,135250.362641125,1.418383667876936,1.596410397660574,-0.1049646599016093,0.8548776507377625,1.630431890487671,0.940284252166748,-0.02307021617889404,0.2855782508850098,0.2884030342102051,XArbitraryZVertical,-0.4934870281014432,0.5188503724375793,0.4254135882734,0.5534330079872561,0.9941700100898743,0.1047720238566399,0.0254703126847744,0,0,0,-1,-1,135246.703772875,unknown,2,2026-03-30T14:38:29.892-05:00,2026-03-30T10:54:16.334-05:00,3730,1.346119,0,0,2516.999,4,4,2026-03-30T14:36:34.095-05:00,796592312.5328714,0,-0.2199974,99.60328,1,0.9,2026-03-30T14:37:50.703-05:00,72,1.2,2026-03-30T12:48:13.834-05:00,0.1236805929763694
2026-03-30T14:38:33.591-05:00,1774899513.168855,30.28879813383251,-97.73762760353613,174.6327,0.6426735,0.5027595,-1,-1,3,9.996178291831027,-9999,135250.401590125,0.88385009765625,-0.0359344482421875,0.780059814453125,135250.392796125,1.393900352550554,1.64306687767531,-0.08260465797676868,0.5890910625457764,1.459535360336304,0.6759898066520691,-0.11662358045578,-0.0706394761800766,0.7431783676147461,XArbitraryZVertical,-0.4911443400204842,0.5429161596200078,0.4136300771582244,0.5412295430655151,0.9939886927604675,0.08251074701547623,0.07196144014596939,0,0,0,-1,-1,135246.703772875,unknown,2,2026-03-30T14:38:29.892-05:00,2026-03-30T10:54:16.334-05:00,3730,1.346119,0,0,2516.999,4,4,2026-03-30T14:36:34.095-05:00,796592312.5328714,0,-0.2199974,99.60328,1,0.9,2026-03-30T14:37:50.703-05:00,72,1.2,2026-03-30T12:48:13.834-05:00,0.1236805929763694
2026-03-30T14:38:33.627-05:00,1774899513.168855,30.28879813383251,-97.73762760353613,174.6327,0.6426735,0.5027595,-1,-1,3,9.996178291831027,-9999,135250.435516125,1.107772827148438,-0.15460205078125,0.277313232421875,135250.422952125,1.39629859036337,1.681391510832025,-0.06505539511742173,-0.7003123164176941,1.159218549728394,0.4404979050159454,0.02228039503097534,-0.2640909850597382,0.3821274042129517,XArbitraryZVertical,-0.4953179648162404,0.5565324006778022,0.4099231368181248,0.5262079802803541,0.9917881488800049,0.06500951945781708,0.1101363971829414,0,0,0,-1,-1,135246.703772875,unknown,2,2026-03-30T14:38:29.892-05:00,2026-03-30T10:54:16.334-05:00,3730,1.346119,0,0,2516.999,4,4,2026-03-30T14:36:34.095-05:00,796592312.5328714,0,-0.2199974,99.60328,1,0.9,2026-03-30T14:37:50.703-05:00,72,1.2,2026-03-30T12:48:13.834-05:00,0.1236805929763694
2026-03-30T14:38:33.661-05:00,1774899513.168855,30.28879813383251,-97.73762760353613,174.6327,0.6426735,0.5027595,-1,-1,3,9.996178291831027,-9999,135250.469441125,0.95721435546875,-0.0824127197265625,0.0909881591796875,135250.453108125,1.402776366813123,1.715270545285609,-0.04956563721607359,0.3600678741931915,1.015642523765564,0.5156213641166687,-0.03386813402175903,-0.007263302803039551,-0.05057929456233978,XArbitraryZVertical,-0.5002580098547739,0.5671327843775578,0.4077123340635045,0.5117353415886416,0.9883664846420288,0.04954534396529198,0.1437953412532806,0,0,0,-1,-1,135246.703772875,unknown,2,2026-03-30T14:38:29.892-05:00,2026-03-30T10:54:16.334-05:00,3730,1.346119,0,0,2516.999,4,4,2026-03-30T14:36:34.095-05:00,796592312.5328714,0,-0.2199974,99.60328,1,0.9,2026-03-30T14:37:50.703-05:00,72,1.2,2026-03-30T12:48:13.834-05:00,0.1236805929763694
2026-03-30T14:38:33.696-05:00,1774899513.168855,30.28879813383251,-97.73762760353613,174.6327,0.6426735,0.5027595,-1,-1,3,9.996178291831027,-9999,135250.503367125,0.9965057373046875,-0.1403656005859375,0.1007232666015625,135250.483263125,1.393379026563035,1.745033644391917,-0.03748662574061617,-0.1969569772481918,1.015432715415955,0.3148062527179718,0.09147065877914429,-0.3024315237998962,-0.06454683840274811,XArbitraryZVertical,-0.5006512951613823,0.5796256595932238,0.4014551998341192,0.5022111413246855,0.9841670393943787,0.03747784718871117,0.1732352524995804,0,0,0,-1,-1,135246.703772875,unknown,2,2026-03-30T14:38:29.892-05:00,2026-03-30T10:54:16.334-05:00,3730,1.346119,0,0,2516.999,4,4,2026-03-30T14:36:34.095-05:00,796592312.5328714,0,-0.2199974,99.60328,1,0.9,2026-03-30T14:37:50.703-05:00,72,1.2,2026-03-30T12:48:13.834-05:00,0.1236805929763694
2026-03-30T14:38:33.727-05:00,1774899513.168855,30.28879813383251,-97.73762760353613,174.6327,0.6426735,0.5027595,-1,-1,3,9.996178291831027,-9999,135250.537290125,1.024139404296875,-0.20013427734375,0.15057373046875,135250.513419125,1.396748624569979,1.776296040330033,-0.02827732373476717,0.1226450353860855,1.060670375823975,0.2860068082809448,-0.02667880058288574,-0.07459931075572968,-0.145319938659668,XArbitraryZVertical,-0.5056672987839506,0.5884623961943171,0.3971775947676454,0.4901658806917559,0.9785678386688232,0.02827355451881886,0.2039748132228851,0,0,0,-1,-1,135246.703772875,unknown,2,2026-03-30T14:38:29.892-05:00,2026-03-30T10:54:16.334-05:00,3730,1.346119,0,0,2516.999,4,4,2026-03-30T14:36:34.095-05:00,796592312.5328714,0,-0.2199974,99.60328,1,0.9,2026-03-30T14:37:50.703-05:00,72,1.2,2026-03-30T12:48:13.834-05:00,0.1236805929763694
2026-03-30T14:38:33.762-05:00,1774899513.168855,30.28879813383251,-97.73762760353613,174.6327,0.6426735,0.5027595,-1,-1,3,9.996178291831027,-9999,135250.571216125,0.980316162109375,0.021392822265625,0.309814453125,135250.543574125,1.39093353012837,1.80953866255022,-0.02154109236228565,0.09705252200365067,1.120551943778992,0.205233171582222,0.03800392150878906,-0.2246187180280685,-0.05998849868774414,XArbitraryZVertical,-0.5088856985134503,0.5993732759786293,0.3893697543052919,0.4797689130641525,0.9714107513427734,0.02153942734003067,0.2364259511232376,0,0,0,-1,-1,135246.703772875,unknown,2,2026-03-30T14:38:29.892-05:00,2026-03-30T10:54:16.334-05:00,3730,1.346119,0,0,2516.999,4,4,2026-03-30T14:36:34.095-05:00,796592312.5328714,0,-0.2199974,99.60328,1,0.9,2026-03-30T14:37:50.703-05:00,72,1.2,2026-03-30T12:48:13.834-05:00,0.1236805929763694
